

Devices
1000
,,Right - Force,,,Right - Moment,,,Right - CoP,,,Left - Force,,,Left - Moment,,,Left - CoP,,,EMG - Voltage,,,,,,,,
Frame,Sub Frame,Fx,Fy,Fz,Mx,My,Mz,Cx,Cy,Cz,Fx,Fy,Fz,Mx,My,Mz,Cx,Cy,Cz,L_RF_1,L_BF_2,L_SOL_3,L_TA_4,R_RF_5,R_BF_6,R_SOL_7,R_TA_8
,,N,N,N,N.mm,N.mm,N.mm,mm,mm,mm,N,N,N,N.mm,N.mm,N.mm,mm,mm,mm,V,V,V,V,V,V,V,V
908,0,-20.8487,16.5926,-1735.19,-178536,69775.8,36021.7,894.212,928.891,0,70.7864,151.091,-1636.01,-128443,-66075.2,-103300,251.612,904.51,0,-0.0040565,-0.00302726,-0.00277963,-0.00275685,-0.0027202,-0.00272755,-0.00415648,-0.00304002
908,1,-21.0013,16.44,-1736.11,-177478,70153.3,36453.9,894.408,928.228,0,71.0916,151.701,-1636.62,-128633,-66733.8,-102955,251.225,904.596,0,-0.00322826,-0.0046129,-0.00341415,-0.00326699,-0.00317679,-0.00305572,-0.00315719,-0.00434348
908,2,-20.5435,16.2874,-1736.11,-177478,70031.2,36330,894.338,928.228,0,70.6339,151.243,-1636.32,-128416,-66770.7,-103967,251.195,904.478,0,3.44523e-06,-0.000288907,-0.00106859,-0.000934358,0.00143324,-0.00138632,-0.000663076,2.49972e-05
908,3,-20.6961,16.44,-1736.11,-177722,69543,36236.9,894.057,928.368,0,70.6339,151.243,-1637.23,-127358,-66904.1,-103479,251.136,903.788,0,-0.000955223,0.0018908,-0.00039865,-0.000404917,0.000639751,-0.000368733,-0.00135367,0.00158999
908,4,-20.2383,16.44,-1736.72,-177912,69957.4,36888,894.281,928.441,0,70.1761,151.091,-1636.93,-126164,-66819,-103721,251.18,903.074,0,0.000259941,9.14712e-05,2.26874e-05,0.000226585,6.43149e-05,0.000275527,0.00022274,0.000230294
908,5,-20.8487,15.9822,-1736.72,-177179,69957.4,36095.6,894.281,928.02,0,70.7864,151.396,-1638.15,-125811,-67525.8,-103263,250.779,902.801,0,0.000501832,0.000398493,0.000449732,0.000276777,0.000393495,0.000287277,0.000457581,0.000393625
908,6,-20.6961,16.1348,-1738.24,-175823,70749.3,37128.3,894.702,927.15,0,69.8709,151.396,-1636.01,-127466,-66441.5,-104444,251.388,903.913,0,0.000473295,0.000436263,0.000439828,0.00019167,0.000463159,0.000525811,0.000399164,0.00037516
908,7,-20.8487,16.5926,-1736.11,-178210,69543,36021.7,894.057,928.649,0,70.939,151.701,-1637.23,-127602,-66904.1,-103457,251.136,903.937,0,0.00479343,0.00476949,0.00439217,0.00548541,0.00546297,0.00517798,0.00525294,0.00528953
908,8,-20.5435,15.9822,-1735.8,-177993,69824,35878.6,894.226,928.542,0,70.3287,151.701,-1636.62,-127412,-66733.8,-103511,251.225,903.851,0,0.00375637,0.00354006,0.00335562,0.00385798,0.0045409,0.0036944,0.00349625,0.00345193
908,9,-20.2383,17.0503,-1736.72,-176447,70689.8,36814.1,894.703,927.598,0,70.1761,151.091,-1636.93,-127873,-66941,-103110,251.106,904.118,0,0.00328954,0.00322582,0.0030919,0.00291559,0.00327219,0.0043489,0.00324042,0.0031439
909,0,-20.3909,16.2874,-1737.02,-175443,70652.9,36465.6,894.675,927.002,0,70.4813,151.243,-1636.93,-126896,-66696.9,-103370,251.255,903.521,0,-0.00110277,0.00184329,0.000484983,-0.000613068,0.000900946,-4.03925e-05,-0.0010458,0.00148356
909,1,-21.0013,15.9822,-1737.02,-177152,70042.5,36204.1,894.323,927.986,0,70.939,151.243,-1636.62,-127168,-66611.8,-102963,251.299,903.701,0,-0.000841412,-0.000141691,0.00183293,-0.00108661,-4.83215e-05,0.000544444,-0.000622788,-0.000891034
909,2,-20.8487,16.2874,-1737.63,-176610,70212.8,36424.9,894.407,927.638,0,70.3287,151.091,-1636.93,-127873,-66941,-103463,251.106,904.118,0,-0.000359308,-0.000207494,-0.00068855,-0.000230339,-0.000220549,-0.000354633,-0.000220084,-0.000222769
909,3,-20.2383,16.44,-1736.11,-177234,70153.3,37376.2,894.408,928.087,0,70.6339,151.701,-1636.01,-126978,-66441.5,-103850,251.388,903.614,0,-0.000255065,-0.00027531,-0.000165991,-0.000183841,-0.000253786,-0.000222356,-8.76397e-05,-0.000164353
909,4,-19.9332,16.44,-1735.8,-177993,69579.9,37037.2,894.085,928.542,0,70.3287,151.243,-1636.32,-126951,-67014.9,-103139,251.045,903.583,0,-0.000183051,-0.000211858,-0.000300282,-0.000136,-0.000322107,-0.000194491,-0.000350178,-0.000169724
909,5,-20.8487,16.1348,-1735.8,-177749,69824,36138.1,894.226,928.402,0,70.0235,151.701,-1635.4,-128009,-66393.2,-104149,251.402,904.274,0,-0.000235424,-0.00033272,-1.82713e-05,-0.000146575,-0.000192013,-0.000244682,-0.000267254,-0.000168381
909,6,-20.3909,15.9822,-1736.11,-177478,69665,36380.5,894.127,928.228,0,70.0235,151.548,-1636.32,-127683,-66404.5,-103740,251.418,904.031,0,-0.00428563,-0.00431327,-0.00426908,-0.00508478,-0.00456049,-0.00431722,-0.00442439,-0.00443413
909,7,-20.3909,16.8977,-1735.5,-178997,69372.7,36391.8,893.973,929.139,0,70.1761,151.243,-1637.23,-126381,-67270.3,-103397,250.912,903.192,0,-0.00409763,-0.00394917,-0.00411464,-0.00384964,-0.00553796,-0.00412888,-0.00400423,-0.00412492
909,8,-20.3909,15.8296,-1736.41,-176718,69994.3,35971.7,894.31,927.772,0,70.6339,151.548,-1636.01,-127954,-66929.7,-103320,251.09,904.211,0,-0.00181586,-0.00162107,-0.000465627,-0.00160329,-0.00245548,0.000736144,-0.00128216,-0.00180069
909,9,-20.8487,16.1348,-1736.41,-177451,70238.5,36138.1,894.45,928.194,0,69.8709,151.243,-1636.93,-127141,-66819,-103913,251.18,903.67,0,-0.00142121,0.00052523,-0.000243712,-0.00124491,0.000430257,0.00128774,-0.00134443,0.00029509
910,0,-20.8487,16.1348,-1736.41,-177451,69994.3,35894,894.31,928.194,0,70.0235,151.091,-1636.93,-127385,-66941,-103979,251.106,903.819,0,-0.000237607,0.0007688,0.000688937,0.000601424,0.000335582,0.000471423,6.66268e-05,0.00076175
910,1,-20.6961,15.9822,-1736.72,-176691,69957.4,36231.2,894.281,927.739,0,70.4813,151.091,-1636.93,-125676,-66941,-103327,251.106,902.775,0,0.000441233,0.000717602,0.000603663,0.000424329,0.000423375,0.000541254,0.000484103,0.000673286
910,2,-21.0013,16.44,-1737.02,-176664,70652.9,35843.5,894.675,927.705,0,70.1761,151.091,-1636.32,-127683,-66892.8,-103721,251.12,904.031,0,0.000262962,0.00027461,0.000272636,0.000210135,0.000123067,0.000241618,0.000215857,0.000221062
910,3,-20.3909,16.44,-1736.41,-178671,69872.2,36386.1,894.24,928.897,0,70.4813,151.091,-1636.32,-126218,-67137,-103694,250.971,903.136,0,0.000293681,0.000299622,0.000363786,0.000311524,0.000308388,0.000393535,0.000354177,0.000367439
910,4,-20.3909,16.44,-1736.41,-177206,69994.3,36386.1,894.31,928.053,0,70.3287,151.548,-1636.01,-128199,-67296,-103225,250.866,904.36,0,0.00433768,0.00422209,0.00409019,0.00404984,0.00360691,0.00492803,0.00465836,0.00421101
910,5,-20.8487,16.44,-1736.72,-177912,69957.4,36101.2,894.281,928.441,0,70.3287,151.243,-1636.32,-128171,-67137,-103994,250.971,904.329,0,0.00407699,0.00298091,0.00294569,0.00278835,0.00277967,0.00260749,0.0040841,0.00305795
910,6,-20.0858,16.5926,-1736.72,-177668,70323.6,37066.2,894.492,928.301,0,70.3287,152.311,-1636.93,-125920,-66696.9,-104048,251.255,902.925,0,0.00280861,0.00430182,0.00360976,0.00342942,0.0032188,0.00312736,0.00279592,0.00420631
910,7,-21.0013,15.9822,-1737.02,-176664,69798.4,35471.6,894.183,927.705,0,70.6339,152.006,-1636.62,-126924,-66855.9,-103569,251.15,903.552,0,0.000352937,-0.000649142,-0.000417954,0.00190707,-0.00094018,2.91629e-06,0.000584654,-0.000333223
910,8,-20.5435,16.1348,-1736.41,-176718,69994.3,36531.5,894.31,927.772,0,71.0916,151.396,-1636.93,-127141,-66696.9,-102870,251.255,903.67,0,0.00079895,-0.00112822,0.000549443,-0.000231346,-0.000847352,-0.000103845,0.00164807,-0.00108038
910,9,-20.6961,16.1348,-1736.72,-176691,69469.1,36029.7,894,927.739,0,70.0235,152.006,-1636.01,-128687,-66441.5,-104112,251.388,904.659,0,-0.000430985,-0.000110636,-0.000272417,-0.000269619,2.70903e-06,-0.000200702,-0.000238885,-6.56491e-05
911,0,-20.8487,16.1348,-1736.11,-177722,70275.4,36016.1,894.479,928.368,0,70.6339,151.243,-1637.23,-126381,-67148.2,-102990,250.987,903.192,0,-0.000338493,-0.0001897,-0.000175056,-0.000307556,-0.000282491,-0.000339693,-0.000284544,-0.000466675
911,1,-20.5435,16.5926,-1736.41,-178427,70116.4,37025.4,894.38,928.756,0,70.0235,151.243,-1636.62,-126679,-67344.2,-104509,250.852,903.403,0,-0.000385662,-0.000287397,-0.000303303,-0.000308731,-0.000242204,-0.000266001,-0.000486651,-0.000188022
911,2,-20.6961,16.2874,-1736.11,-178210,70031.2,36438.4,894.338,928.649,0,70.1761,151.701,-1636.32,-126951,-67259,-103891,250.896,903.583,0,-0.00469875,-0.00487091,-0.00547182,-0.00499884,-0.00493097,-0.00510903,-0.00517525,-0.00523148
911,3,-20.0858,16.1348,-1737.02,-176664,70042.5,37060.5,894.323,927.705,0,70.0235,151.396,-1636.01,-126978,-66807.7,-104186,251.164,903.614,0,-0.00381075,-0.0040049,-0.00367115,-0.00366701,-0.00364983,-0.00471673,-0.00355167,-0.00366313
911,4,-20.8487,16.7451,-1736.72,-177912,70079.5,36430.5,894.352,928.441,0,70.6339,151.396,-1636.93,-127385,-67673.5,-103155,250.658,903.819,0,-0.0031863,-0.00357853,-0.00356372,-0.00334756,-0.00311149,-0.00315157,-0.00303683,-0.00319378
911,5,-20.8487,16.44,-1736.41,-177695,69994.3,36467.4,894.31,928.335,0,71.2442,151.243,-1636.62,-127412,-66978,-102814,251.076,903.851,0,-0.00138747,-0.000583844,0.00124406,-0.00161236,-0.000409228,-0.000118281,-0.001027,-0.00143911
911,6,-20.6961,16.8977,-1735.8,-177993,70190.2,36242.5,894.437,928.542,0,70.4813,151.548,-1636.62,-127656,-66978,-104066,251.076,904,0,0.000479842,-0.000557825,-0.0013778,0.00150218,3.04475e-06,-0.000845801,0.000753524,-0.000314087
911,7,-20.3909,16.2874,-1736.41,-177451,69872.2,36465.6,894.24,928.194,0,70.1761,151.853,-1636.93,-126896,-66696.9,-103934,251.255,903.521,0,0.00017903,0.000385904,0.000141367,0.000270566,0.00012441,0.000274352,0.000243051,0.000282164
911,8,-20.5435,16.2874,-1736.11,-178210,69543,36330,894.057,928.649,0,70.3287,151.548,-1636.62,-126191,-66611.8,-104445,251.299,903.105,0,0.000187591,0.000307008,0.000300501,0.000311356,0.000356565,0.000210731,5.97444e-05,0.0003948
911,9,-20.8487,16.5926,-1737.02,-177152,70164.6,36265.9,894.394,927.986,0,70.6339,151.243,-1636.62,-127656,-66733.8,-103234,251.225,904,0,0.000356798,0.000365424,0.000281533,0.000477205,0.000465173,0.000385309,0.000432569,0.000330005
912,0,-20.6961,16.7451,-1735.5,-178753,69494.8,36322,894.043,928.998,0,70.1761,151.243,-1637.23,-126381,-67392.4,-104130,250.838,903.192,0,0.000262794,0.000211829,0.000268943,0.000265026,1.32844e-05,0.000266966,0.000200414,0.000263363
912,1,-20.6961,16.1348,-1736.41,-177695,69994.3,36395.9,894.31,928.335,0,70.6339,150.938,-1637.23,-126869,-66415.8,-103515,251.434,903.49,0,0.00529148,0.00451148,0.00430119,0.00435838,0.00419141,0.00458626,0.00553344,0.00452105
912,2,-20.8487,16.1348,-1737.02,-176908,70286.7,36504.4,894.464,927.846,0,70.4813,151.701,-1637.54,-126110,-66745.1,-103498,251.241,903.012,0,0.00461247,0.00432482,0.0038028,0.00395299,0.00359952,0.00425356,0.00509313,0.00396291
912,3,-20.2383,16.44,-1736.72,-176935,70323.6,37132.1,894.492,927.879,0,70.4813,151.243,-1637.23,-126137,-66782,-103248,251.21,903.043,0,0.000610775,0.00168147,0.000749368,-0.000346668,0.00262692,0.00105341,0.000231133,0.00176624
912,4,-20.8487,16.8977,-1736.72,-176935,70201.5,36228.9,894.422,927.879,0,70.7864,151.548,-1636.62,-128388,-67100,-103184,251.001,904.447,0,-0.000513071,0.00179495,-0.000859939,-0.000218924,0.000587545,-0.0008129,-0.000461304,0.0018673
912,5,-20.2383,16.44,-1737.02,-178129,70530.8,36643.8,894.604,928.548,0,70.1761,151.091,-1636.32,-128416,-66770.7,-103843,251.195,904.478,0,-0.000986949,0.000324801,-0.000379346,-0.000222785,-0.000275273,-0.000173005,-0.000689598,0.000123533
912,6,-20.6961,16.5926,-1737.63,-176610,70701.1,36523.6,894.688,927.638,0,70.7864,151.243,-1637.54,-125866,-66745.1,-103221,251.241,902.863,0,-0.000308109,-0.000252313,-0.000266541,-0.000508992,-0.000152397,-0.000303435,-0.000340274,-0.000300658
912,7,-20.5435,16.44,-1735.8,-178481,70434.4,36250.5,894.578,928.824,0,70.3287,151.091,-1636.62,-127412,-67222.1,-103707,250.926,903.851,0,-0.000128999,-0.000202793,-0.00010791,-0.000352376,-0.000186137,-0.000131207,-0.000189029,-0.000227637
912,8,-20.2383,16.2874,-1735.5,-178509,69616.8,36601.3,894.114,928.857,0,69.7183,151.853,-1637.23,-126869,-66537.9,-103852,251.36,903.49,0,-0.000248182,-0.00020229,-0.000342919,-0.000454269,-7.01437e-05,-0.00028732,-0.00025735,-0.000328859
912,9,-20.5435,16.1348,-1737.33,-176637,70371.8,36165.3,894.506,927.672,0,70.6339,152.159,-1636.32,-127195,-66526.6,-103490,251.344,903.732,0,-0.00420573,-0.00393071,-0.00397817,-0.00395792,-0.00454068,-0.00421398,-0.00400339,-0.00386104
913,0,-21.0013,16.1348,-1736.72,-177912,69957.4,35880.4,894.281,928.441,0,70.1761,151.243,-1636.62,-127656,-67100,-103519,251.001,904,0,-0.00409679,-0.00305043,-0.00278399,-0.00270263,-0.00284258,-0.00289407,-0.00404989,-0.0029393
913,1,-20.5435,15.9822,-1736.72,-177423,69957.4,36366.9,894.281,928.16,0,70.1761,151.396,-1636.01,-128199,-66929.7,-103196,251.09,904.36,0,-0.00322658,-0.00340126,-0.00425414,-0.00344761,-0.00321523,-0.00312186,-0.00312933,-0.00314695
913,2,-20.3909,16.44,-1736.72,-176935,70079.5,36752.3,894.352,927.879,0,70.4813,151.091,-1636.62,-126924,-66733.8,-103572,251.225,903.552,0,-0.000962441,0.000221398,-0.000941688,-0.00182504,0.000895911,4.89109e-05,-0.00150877,0.00021099
913,3,-20.8487,15.677,-1737.33,-176393,70371.8,35766.3,894.506,927.531,0,70.3287,151.396,-1636.01,-127710,-67173.9,-103426,250.941,904.062,0,0.00155182,0.000179432,-0.00095881,0.000704996,-0.000257647,-0.00130054,0.00131419,0.000825035
913,4,-20.2383,15.9822,-1736.41,-177695,69628.1,36638.2,894.099,928.335,0,70.3287,151.548,-1635.4,-129474,-66271.2,-103835,251.477,905.169,0,-2.15664e-05,0.000557964,0.000403234,0.000374473,0.000274816,0.000232554,-3.76164e-05,0.000598922
913,5,-20.8487,15.677,-1736.72,-177668,69835.3,35766.3,894.211,928.301,0,70.1761,151.396,-1637.84,-126327,-66708.2,-104416,251.271,903.13,0,0.000305599,0.000427534,0.000489684,0.000411067,0.000336589,0.000415525,0.000252452,0.000644917
913,6,-20.6961,16.2874,-1736.72,-176447,70079.5,35828.1,894.352,927.598,0,70.7864,151.396,-1637.23,-126625,-67148.2,-103508,250.987,903.341,0,0.000447108,0.000433241,0.000428917,0.000245386,0.000454765,0.000384638,0.000474871,0.000333195
913,7,-21.0013,15.5244,-1735.8,-177505,69824,35954.3,894.226,928.261,0,70.3287,150.938,-1636.93,-127629,-67307.2,-103543,250.882,903.969,0,0.00458998,0.00551296,0.00552911,0.00512132,0.00536914,0.00528927,0.00484553,0.00551665
913,8,-20.5435,16.44,-1735.19,-179268,69409.6,36494.6,894.001,929.313,0,69.8709,150.785,-1636.62,-127412,-66733.8,-104273,251.225,903.851,0,0.00351565,0.00328188,0.00465018,0.00366879,0.00359129,0.00341222,0.00333845,0.0029799
913,9,-21.0013,16.44,-1736.41,-177451,69872.2,36209.7,894.24,928.194,0,70.0235,151.853,-1637.23,-126381,-67026.2,-104191,251.061,903.192,0,0.00340503,0.00419792,0.00328192,0.00306432,0.0030689,0.00292962,0.00314054,0.0042941
914,0,-20.2383,16.7451,-1737.02,-178617,70164.6,36240.7,894.394,928.829,0,70.4813,151.091,-1637.84,-127303,-67318.5,-103694,250.898,903.726,0,0.00127484,0.0012363,-0.000918187,0.000892835,0.000229996,-0.000575877,0.000318254,0.00184195
914,1,-20.6961,16.2874,-1737.63,-177098,70212.8,35828.1,894.407,927.919,0,70.0235,152.006,-1636.93,-126652,-67185.2,-103990,250.957,903.372,0,-0.000488395,-0.00109667,0.00105773,0.000677467,-0.00106675,0.000613771,-7.20284e-05,-0.000856286
914,2,-20.6961,16.44,-1736.72,-177423,70079.5,36236.9,894.352,928.16,0,70.3287,151.853,-1636.93,-128117,-67185.2,-104042,250.957,904.267,0,-0.000374583,-0.000360585,-0.000171363,-0.000335422,-0.000474863,-0.000305281,-0.000378211,-0.000324327
914,3,-20.3909,16.1348,-1736.11,-177722,70275.4,36423,894.479,928.368,0,70.4813,151.853,-1636.32,-128660,-67137,-103784,250.971,904.628,0,-0.000443072,-4.90305e-05,-6.71196e-05,-0.000294631,-0.000193691,-0.000161254,-0.000240563,-1.17649e-05
914,4,-20.3909,16.1348,-1736.72,-176447,69957.4,36911.3,894.281,927.598,0,70.4813,151.396,-1636.32,-127927,-66648.7,-102680,251.269,904.18,0,-0.000276215,-0.00025097,-0.00052354,-0.000168565,-0.000201581,-0.000193148,-0.000235527,-0.000259363
914,5,-21.0013,15.8296,-1736.72,-177423,70079.5,36039.4,894.352,928.16,0,70.4813,151.548,-1636.01,-126978,-66563.5,-102967,251.314,903.614,0,-0.000265304,-0.000219076,-0.00011026,-0.000441679,-5.06716e-05,-4.99607e-05,-0.000181475,-0.000301161
914,6,-20.0858,15.9822,-1737.33,-176393,70616,36651.8,894.646,927.531,0,70.1761,151.701,-1636.01,-128687,-67662.2,-104257,250.642,904.659,0,-0.00448959,-0.00446518,-0.00450694,-0.00443196,-0.00553796,-0.00442599,-0.00451051,-0.00451218
914,7,-20.5435,16.44,-1736.11,-177966,69543,36616.7,894.057,928.509,0,70.7864,151.548,-1636.93,-126896,-67429.3,-103428,250.807,903.521,0,-0.00405365,-0.00404855,-0.00401325,-0.00439067,-0.00482739,-0.00420727,-0.00402874,-0.0040556
914,8,-21.0013,16.44,-1736.11,-177966,70031.2,35599.4,894.338,928.509,0,70.1761,151.853,-1638.15,-126055,-67403.7,-103812,250.854,902.95,0,-0.00259726,4.54766e-05,-0.000362559,-0.0022865,-0.000448508,-0.00121477,-0.00228514,-0.000201451
914,9,-19.628,15.9822,-1736.72,-176935,70323.6,37547,894.492,927.879,0,70.3287,151.091,-1636.62,-128144,-67100,-103707,251.001,904.298,0,-0.000954719,-0.000528449,0.00057479,-0.000790164,-0.00134171,0.00182944,-0.000595091,-0.000645282
915,0,-21.0013,16.7451,-1736.11,-178210,69543,36050.7,894.057,928.649,0,70.1761,151.243,-1636.32,-127195,-66648.7,-104130,251.269,903.732,0,0.000159726,0.000256313,0.00106697,0.000414089,0.000398867,0.000491903,0.000303986,7.50205e-05
915,1,-20.6961,15.9822,-1737.33,-177125,70127.7,36353.3,894.365,927.953,0,70.0235,151.701,-1636.01,-127954,-66685.6,-104027,251.239,904.211,0,0.000304424,0.000528252,0.000443018,0.000521689,0.000426396,0.000570127,0.000330005,0.000602112
915,2,-20.8487,15.9822,-1736.41,-177939,70360.5,36461.8,894.521,928.475,0,70.939,151.243,-1637.23,-126869,-67392.4,-103940,250.838,903.49,0,0.000118935,0.000491154,0.000318295,0.000164812,0.000218078,0.000238597,0.000275113,0.00027226
915,3,-20.6961,15.9822,-1735.8,-178237,69824,36719.5,894.226,928.683,0,70.7864,151.396,-1635.4,-128009,-66759.5,-103385,251.179,904.274,0,0.000332961,0.000266888,0.000532657,0.000456223,0.000327861,0.000292313,0.000306,0.000357535
915,4,-20.8487,16.44,-1735.8,-178726,69946.1,36467.4,894.296,928.964,0,70.4813,151.853,-1636.62,-127412,-66611.8,-103907,251.299,903.851,0,0.0041767,0.0040131,0.00392887,0.00354944,0.00507403,0.00409123,0.00393924,0.0037514
915,5,-20.2383,16.44,-1735.19,-179268,69653.8,36888,894.142,929.313,0,70.7864,151.701,-1635.71,-127982,-65990.1,-102982,251.657,904.242,0,0.00383157,0.00309035,0.00291447,0.00278533,0.00266066,0.00324604,0.00410425,0.00320937
915,6,-20.3909,16.1348,-1735.8,-178481,69579.9,36911.3,894.085,928.824,0,70.4813,151.853,-1636.93,-126896,-67063.1,-103540,251.031,903.521,0,0.00427624,0.00385967,0.00353103,0.00326038,0.00306874,0.00283209,0.00361963,0.00403492
915,7,-20.5435,15.677,-1736.41,-178671,69872.2,35793.5,894.24,928.897,0,70.0235,151.243,-1636.93,-127385,-66941,-104143,251.106,903.819,0,-0.00128474,0.00175601,0.000199112,-0.000750884,0.000858477,-0.000308303,-0.00107333,0.000989205
915,8,-20.6961,16.2874,-1736.72,-176935,70079.5,36194.3,894.352,927.879,0,70.1761,151.701,-1636.32,-127927,-67137,-103769,250.971,904.18,0,0.000447612,-0.000607344,-0.0010273,0.00180517,-0.000540833,-0.000397102,0.00073103,-0.000594419
915,9,-20.8487,15.9822,-1736.72,-176447,69835.3,35851.4,894.211,927.598,0,70.6339,151.701,-1636.32,-127439,-66526.6,-103484,251.344,903.882,0,-0.000157704,-0.000218237,-0.000323279,4.96572e-05,-9.53232e-05,-0.000244011,-0.000121212,-9.72074e-05
916,0,-20.8487,15.8296,-1737.02,-175931,70042.5,36175.1,894.323,927.283,0,70.4813,152.006,-1635.4,-128009,-66149.1,-102973,251.552,904.274,0,-0.000485373,-0.000223776,-0.000294575,-0.000323839,-0.000373473,-0.000282619,-0.000429745,-6.14525e-05
916,1,-21.0013,16.44,-1736.72,-177179,69957.4,35721.4,894.281,928.02,0,70.1761,152.159,-1636.93,-126408,-66330.7,-103408,251.479,903.223,0,-0.000283266,-0.000257349,-0.00022894,-0.000296309,-0.000243547,-0.000199359,-0.00022747,-0.000266749
916,2,-20.3909,16.2874,-1736.11,-177478,69909.2,36221.5,894.268,928.228,0,70.6339,152.616,-1636.32,-128171,-66404.5,-103495,251.418,904.329,0,-0.00529181,-0.00548797,-0.00488782,-0.00515478,-0.00527676,-0.00520471,-0.0054675,-0.00548428
916,3,-20.5435,16.1348,-1736.11,-178210,69787.1,36287.4,894.198,928.649,0,70.7864,151.243,-1638.15,-126300,-67159.5,-102855,251.003,903.099,0,-0.00478872,-0.00395639,-0.00361491,-0.00353507,-0.00340207,-0.00346481,-0.00480695,-0.00355133
916,4,-20.8487,15.9822,-1736.41,-177939,70116.4,35973.5,894.38,928.475,0,70.1761,151.853,-1636.32,-127927,-66892.8,-104056,251.12,904.18,0,-0.00453206,-0.00320117,-0.00325166,-0.00308939,-0.00295051,-0.00298035,-0.00403931,-0.00317868
916,5,-20.3909,16.5926,-1736.41,-177206,69872.2,36184.5,894.24,928.053,0,70.3287,151.243,-1637.23,-126869,-67270.3,-104238,250.912,903.49,0,-0.00142776,-0.000363942,0.00129879,-0.00167061,-0.000221557,-0.000247536,-0.00104698,-0.00130062
916,6,-21.0013,16.1348,-1737.02,-177152,70164.6,36124.6,894.394,927.986,0,70.4813,151.396,-1636.32,-127195,-66038.3,-103535,251.642,903.732,0,-0.000505349,0.000555278,-0.000438266,-0.00124356,0.000934183,0.000791035,-0.00115156,0.000604798
916,7,-20.3909,16.7451,-1737.02,-176908,70164.6,36349.2,894.394,927.846,0,70.4813,150.938,-1636.93,-128850,-66696.9,-103407,251.255,904.714,0,5.21256e-05,0.000343434,0.000149592,0.000194188,0.000176112,0.00018488,-6.1453e-05,0.000458085
916,8,-20.5435,15.9822,-1737.33,-177613,70127.7,36244.8,894.365,928.234,0,70.1761,151.396,-1636.93,-127873,-66819,-103928,251.18,904.118,0,0.000335143,0.000260845,0.000125588,0.00030397,0.00043479,0.000292313,0.000419979,0.000287704
916,9,-20.2383,16.2874,-1737.02,-177152,69798.4,36601.3,894.183,927.986,0,70.3287,151.396,-1636.62,-127168,-66733.8,-103548,251.225,903.701,0,0.000482024,0.000356528,0.000451746,0.000249751,0.000558673,0.000457658,0.000427198,0.000395136
917,0,-20.5435,17.0503,-1736.72,-178156,70201.5,36909,894.422,928.582,0,70.0235,151.548,-1636.93,-126652,-67307.2,-103984,250.882,903.372,0,0.000183898,0.000196889,0.000172589,0.000191166,7.01901e-05,0.000248165,0.000120343,0.000141327
917,1,-21.0013,16.44,-1736.72,-177668,69835.3,35599.4,894.211,928.301,0,70.0235,151.548,-1637.23,-127358,-66415.8,-103740,251.434,903.788,0,0.00446794,0.00419154,0.00433963,0.00375491,0.00517072,0.00513115,0.00461589,0.00431911
917,2,-21.6116,15.5244,-1737.02,-176176,70042.5,35289.6,894.323,927.424,0,70.3287,151.396,-1636.32,-129148,-67014.9,-103670,251.045,904.926,0,0.00504405,0.00449419,0.00423875,0.00389591,0.00386911,0.0034515,0.00504949,0.00437484
917,3,-21.0013,15.9822,-1735.5,-178264,69494.8,35715.8,894.043,928.717,0,70.0235,151.701,-1636.93,-127141,-66941,-103661,251.106,903.67,0,-0.000474462,0.00267388,0.00128989,9.9177e-05,0.00185374,0.000782978,-0.000545236,0.00282546
917,4,-20.6961,16.1348,-1736.11,-177966,69787.1,36640,894.198,928.509,0,70.3287,151.701,-1635.71,-128714,-66600.5,-103755,251.283,904.69,0,0.000355455,0.000199911,-0.000775839,-0.00033945,0.00170166,-0.000999564,-1.74728e-05,0.000477054
917,5,-21.3065,15.9822,-1737.02,-177640,70164.6,35810.7,894.394,928.267,0,69.8709,151.091,-1636.93,-127141,-66941,-103748,251.106,903.67,0,-0.00012732,-0.000215719,-0.00014484,-0.00083213,3.57781e-05,-0.000317199,-0.000129606,-0.000186175
917,6,-20.5435,16.1348,-1737.02,-176908,69920.5,36409.4,894.253,927.846,0,70.3287,151.853,-1637.84,-125594,-66830.2,-103432,251.196,902.683,0,-0.000287294,-0.000289411,-0.000403182,-0.000297484,-0.000566516,-0.000218999,-0.000235192,-0.000242745
917,7,-20.5435,15.9822,-1736.41,-177939,69994.3,36244.8,894.31,928.475,0,70.1761,151.548,-1637.84,-125106,-67074.4,-103726,251.047,902.385,0,-6.42037e-05,8.99604e-05,-0.000186974,-0.000136,-0.00015139,-0.000154372,-3.69449e-05,-0.000117687
917,8,-20.8487,16.2874,-1736.41,-178183,70116.4,36302.8,894.38,928.616,0,70.4813,151.243,-1635.71,-128470,-66966.7,-103492,251.06,904.541,0,-0.000311467,-0.000494204,-0.000142658,-0.000229668,-0.000354504,-0.000266505,-0.000254496,-0.000335573
917,9,-20.6961,16.44,-1736.72,-178400,70079.5,36481,894.352,928.723,0,71.0916,151.548,-1635.4,-127521,-66515.3,-103157,251.328,903.975,0,-0.00410434,-0.00398392,-0.00404045,-0.00452815,-0.00410222,-0.0039877,-0.00371886,-0.00371315
918,0,-20.6961,16.44,-1736.72,-177423,69835.3,36481,894.211,928.16,0,70.1761,151.701,-1636.32,-127439,-66770.7,-104501,251.195,903.882,0,-0.00305352,-0.00293192,-0.0027709,-0.00280956,-0.0029072,-0.0043528,-0.00298463,-0.00306067
918,1,-20.0858,16.2874,-1737.02,-176664,70164.6,37347.3,894.394,927.705,0,70.3287,151.548,-1636.32,-126951,-66648.7,-103591,251.269,903.583,0,-0.00367058,-0.00337054,-0.00318753,-0.00317114,-0.00304855,-0.00327126,-0.00382378,-0.00319765
918,2,-20.5435,16.7451,-1737.02,-177396,69676.3,36457.7,894.113,928.127,0,70.6339,151.243,-1636.62,-127412,-66733.8,-103601,251.225,903.851,0,-0.000273865,0.00126836,-0.00154684,-0.000131803,-0.000190166,-0.00109424,-0.00101341,0.00137949
918,3,-20.5435,15.9822,-1737.02,-175687,70286.7,36733.1,894.464,927.143,0,70.3287,151.396,-1637.54,-126598,-66989.2,-103670,251.092,903.31,0,-0.000215449,0.00188274,-0.00109394,5.08323e-05,0.000507474,-0.000559426,-0.000841347,0.002012
918,4,-20.2383,16.8977,-1736.41,-176962,70116.4,37015.7,894.38,927.913,0,70.4813,151.548,-1636.32,-127683,-66526.6,-103211,251.344,904.031,0,9.17414e-05,0.000225258,0.000214387,0.000382698,0.000229325,0.000246318,0.000211493,0.000297272
918,5,-21.1539,16.5926,-1737.02,-175687,70408.8,36360.8,894.534,927.143,0,70.4813,151.091,-1636.93,-126896,-66819,-103450,251.18,903.521,0,0.000327757,0.000376335,0.000415488,0.000473848,0.000541383,0.000424086,0.000520362,0.000460435
918,6,-20.6961,16.44,-1737.33,-176393,70005.6,36481,894.295,927.531,0,70.7864,151.853,-1636.01,-126978,-67173.9,-103635,250.941,903.614,0,0.000268334,0.000402019,0.000318463,0.000434232,0.000381241,0.00033495,0.000143173,0.000453721
918,7,-20.3909,16.44,-1736.72,-178156,69713.3,36752.3,894.141,928.582,0,70.6339,151.853,-1636.93,-127141,-67307.2,-103649,250.882,903.67,0,0.00474995,0.00551296,0.00528454,0.00533467,0.00531156,0.00542961,0.00483848,0.00551665
918,8,-21.1539,16.8977,-1736.72,-177423,70079.5,36568,894.352,928.16,0,70.3287,151.701,-1636.62,-126679,-66489.7,-103145,251.374,903.403,0,0.00338354,0.00488431,0.00383688,0.00369599,0.00349595,0.00339527,0.00302287,0.00441463
918,9,-20.2383,16.7451,-1736.11,-180163,69909.2,36240.7,894.268,929.774,0,70.7864,151.396,-1637.54,-126598,-67233.4,-103385,250.942,903.31,0,0.00264545,0.00380394,0.00377192,0.00344805,0.00305447,0.00304813,0.0029245,0.00325368
919,0,-20.5435,16.2874,-1736.72,-177423,70079.5,36330,894.352,928.16,0,70.4813,151.548,-1636.93,-126896,-66941,-103943,251.106,903.521,0,0.000529865,-0.000167542,-0.000550398,0.00200896,-0.000235154,-0.000118281,0.0008717,-0.000158981
919,1,-21.0013,15.5244,-1736.41,-177939,69872.2,36076.4,894.24,928.475,0,70.0235,151.853,-1637.23,-127113,-66660,-104314,251.285,903.639,0,0.00123976,-0.00108156,0.000366808,0.000117138,-0.000873035,-0.000139432,0.00185588,-0.0011712
919,2,-20.5435,16.2874,-1736.41,-176962,69628.1,36452,894.099,927.913,0,70.6339,151.396,-1637.23,-126869,-67026.2,-103887,251.061,903.49,0,-0.000338828,-0.000633699,-0.000172538,-0.000297988,-0.000236664,-0.000269862,-0.00023922,-0.000437634
919,3,-20.3909,16.44,-1736.72,-177912,70079.5,36874.4,894.352,928.441,0,70.1761,151.548,-1636.62,-127412,-66367.6,-103971,251.448,903.851,0,-0.000216456,-9.70395e-05,-0.000281985,-0.000132475,-0.000198727,-0.000221685,-0.000157639,-0.000235863
919,4,-21.0013,16.44,-1737.63,-176121,70212.8,36087.6,894.407,927.357,0,70.4813,151.396,-1637.23,-127602,-67392.4,-103657,250.838,903.937,0,-0.000271347,-0.000308547,-0.00025798,-0.000448226,-0.000286855,-0.000232764,-0.000201787,-0.000335406
919,5,-20.3909,16.7451,-1736.41,-177939,69994.3,36471.2,894.31,928.475,0,70.6339,151.701,-1636.62,-128388,-66733.8,-104095,251.225,904.447,0,-0.000290987,-0.000190372,-0.000366588,-1.98382e-05,-0.000114963,-0.000182237,-0.00016855,-0.000213369
919,6,-20.5435,15.9822,-1737.63,-176365,70090.8,36244.8,894.337,927.498,0,70.3287,151.243,-1636.93,-127873,-67551.4,-103262,250.733,904.118,0,-0.00449765,-0.00445075,-0.00441881,-0.00445127,-0.00461706,-0.00538785,-0.00462096,-0.0044207
919,7,-20.6961,16.44,-1736.41,-177939,69872.2,36603.1,894.24,928.475,0,69.8709,151.243,-1636.01,-126978,-67051.8,-103546,251.015,903.614,0,-0.00489901,-0.00401749,-0.00409433,-0.00400038,-0.00397801,-0.00390562,-0.00488686,-0.00391778
919,8,-20.5435,16.1348,-1736.41,-178427,70116.4,36165.3,894.38,928.756,0,70.1761,151.701,-1636.32,-127195,-66892.8,-103769,251.12,903.732,0,-0.000412353,-0.00156282,-0.00236416,0.00062694,-0.00131955,-0.00172557,-0.00023922,-0.00138908
919,9,-20.5435,16.44,-1736.72,-177179,69957.4,36738.7,894.281,928.02,0,69.8709,151.853,-1637.23,-126137,-66782,-103839,251.21,903.043,0,0.00038886,-0.000653171,-0.00141993,0.00136957,4.31641e-05,-0.00103968,0.000552592,-0.000307708
920,0,-20.0858,16.2874,-1736.41,-177206,69872.2,36981,894.24,928.053,0,70.3287,151.548,-1637.54,-127086,-67233.4,-103225,250.942,903.608,0,0.000570992,0.000352163,0.000364961,8.5307e-06,0.000658719,0.00076082,0.000457413,0.000461442
920,1,-20.5435,15.9822,-1735.8,-177017,69579.9,36366.9,894.085,927.98,0,70.1761,151.548,-1637.23,-126625,-66904.1,-103726,251.136,903.341,0,0.000613293,0.000371132,0.000558172,0.000622575,0.000403903,0.000388834,0.000634677,0.000358542
920,2,-20.3909,16.1348,-1736.11,-176013,70031.2,36667.2,894.338,927.384,0,70.0235,151.396,-1636.93,-126896,-66941,-103209,251.106,903.521,0,0.00018222,9.34855e-05,0.000264075,0.000158936,0.000157983,0.000263105,0.000310029,4.64837e-05
920,3,-19.7806,16.44,-1736.11,-177722,70031.2,37539.1,894.338,928.368,0,69.7183,151.243,-1636.32,-128416,-66526.6,-104048,251.344,904.478,0,0.000330947,0.000288375,0.000376711,0.000160279,0.000456612,0.000346197,0.000424344,0.000365424
920,4,-20.0858,15.5244,-1736.11,-176745,69665,36768.2,894.127,927.806,0,70.0235,151.243,-1636.93,-127385,-66819,-103899,251.18,903.819,0,0.00484496,0.00417643,0.00396949,0.0038751,0.00361815,0.004036,0.00493853,0.00397919
920,5,-20.2383,15.9822,-1736.72,-177423,69713.3,36638.2,894.141,928.16,0,70.3287,151.701,-1636.62,-126924,-67100,-103389,251.001,903.552,0,0.00395596,0.00317781,0.00314914,0.00284559,0.00285219,0.00250291,0.00367452,0.00387092
920,6,-20.5435,15.9822,-1736.11,-177966,69665,36611,894.127,928.509,0,70.0235,151.701,-1636.62,-127412,-66855.9,-104027,251.15,903.851,0,0.00436555,0.00337152,0.0032319,0.00304921,0.00308149,0.00296302,0.00432499,0.00318654
920,7,-20.0858,16.5926,-1736.41,-177451,70116.4,37188.3,894.38,928.194,0,70.939,151.396,-1636.01,-127954,-66441.5,-103616,251.388,904.211,0,-9.3412e-05,-0.000531302,0.00072251,-0.000282545,-0.00140281,0.00182021,1.20712e-05,-0.000653003
920,8,-20.2383,16.2874,-1735.19,-178536,69653.8,36723.3,894.142,928.891,0,69.8709,151.091,-1637.23,-127113,-66904.1,-103626,251.136,903.639,0,0.000335311,-0.000831778,-0.000639366,0.00182213,-0.00100263,-0.000295209,0.000483432,-0.000722331
920,9,-20.8487,16.1348,-1735.8,-178481,69579.9,35771.9,894.085,928.824,0,70.6339,151.396,-1636.93,-127141,-66208.6,-103033,251.553,903.67,0,-0.00031902,-0.000304015,-0.00016683,-0.000230507,-0.00016868,-0.000123653,-8.64647e-05,-0.000144545
921,0,-20.8487,15.8296,-1736.11,-177722,69543,36297.1,894.057,928.368,0,70.0235,151.396,-1636.01,-127222,-66197.3,-103698,251.537,903.764,0,-0.000162907,-0.000340609,-0.000290378,-0.000332232,-0.000274937,-0.000252236,-0.000297973,-0.000422023
921,1,-20.0858,16.2874,-1736.41,-176474,69628.1,36614.8,894.099,927.631,0,70.1761,151.701,-1637.23,-127113,-66537.9,-103769,251.36,903.639,0,-0.000304752,-0.000156631,-0.0002234,-0.000313599,-0.00051196,-0.000121471,-0.000155624,-0.000198933
921,2,-21.0013,15.9822,-1737.02,-176420,69920.5,35837.9,894.253,927.565,0,70.0235,151.396,-1636.93,-126408,-66819,-103575,251.18,903.223,0,-0.00502877,-0.00506513,-0.00525964,-0.00518416,-0.00529288,-0.00549747,-0.00525146,-0.00520513
921,3,-20.3909,17.0503,-1736.41,-177451,69750.2,36678.5,894.169,928.194,0,70.3287,151.853,-1636.32,-127683,-66770.7,-103310,251.195,904.031,0,-0.00488894,-0.00368999,-0.00366024,-0.00348739,-0.00351235,-0.00336711,-0.00443111,-0.00340915
921,4,-20.5435,16.5926,-1736.72,-176447,70079.5,37025.4,894.352,927.598,0,70.1761,151.853,-1636.93,-126408,-66330.7,-103568,251.479,903.223,0,-0.00312385,-0.00349762,-0.00349036,-0.00328932,-0.00315766,-0.00293923,-0.00303364,-0.0031352
921,5,-20.6961,15.9822,-1736.72,-177912,69347,36597.4,893.93,928.441,0,70.4813,152.006,-1636.01,-127466,-66685.6,-103705,251.239,903.913,0,-0.00137891,0.000347799,-0.000780875,-0.00166087,0.000596106,0.000347204,-0.00157273,0.00027696
921,6,-20.5435,16.1348,-1737.02,-177152,70042.5,36165.3,894.323,927.986,0,70.6339,151.548,-1636.62,-127900,-67466.2,-103075,250.777,904.149,0,-0.000845608,0.00174224,-0.000679653,-0.000444701,0.000537186,-0.000462233,-0.0014663,0.00132829
921,7,-20.8487,15.9822,-1737.02,-176908,70042.5,35851.4,894.323,927.846,0,70.1761,151.091,-1636.32,-127439,-66648.7,-104087,251.269,903.882,0,9.64416e-05,0.000305161,0.00027784,0.000232125,0.000184841,0.000358115,0.000284681,0.000252284
921,8,-20.6961,16.2874,-1734.89,-178075,69568.6,36194.3,894.1,928.644,0,70.1761,151.548,-1636.62,-127412,-66733.8,-103482,251.225,903.851,0,0.000254569,0.000334538,0.000278008,0.000194859,0.00026424,0.000282745,0.00021804,0.000318423
921,9,-21.459,15.9822,-1736.11,-178210,69909.2,35675,894.268,928.649,0,70.4813,151.701,-1636.62,-127412,-66978,-103864,251.076,903.851,0,0.000343201,0.000367774,0.000435128,0.00042265,0.000498074,0.00045598,0.000436262,0.000407222
922,0,-21.6116,16.2874,-1737.94,-177071,70664.2,35380.4,894.66,927.886,0,70.6339,151.396,-1636.32,-127439,-66648.7,-103521,251.269,903.882,0,0.000362169,0.000245234,0.00021892,0.000207113,0.000270116,0.00024699,0.000457917,0.000224755
922,1,-20.6961,16.8977,-1736.11,-177234,69909.2,36364.6,894.268,928.087,0,70.6339,151.548,-1637.54,-127330,-67233.4,-103930,250.942,903.757,0,0.004266,0.00427899,0.00384091,0.00534441,0.0047796,0.00452432,0.00426674,0.00435168
922,2,-20.5435,15.9822,-1736.72,-176691,70567.8,36488.9,894.633,927.739,0,70.0235,151.701,-1637.23,-127113,-67514.5,-103905,250.763,903.639,0,0.00407212,0.00387763,0.00386256,0.00332853,0.00491053,0.00440514,0.00400454,0.00380495
922,3,-20.5435,16.2874,-1737.02,-177885,70164.6,36574.1,894.394,928.408,0,70.6339,151.548,-1637.54,-126842,-67111.3,-103686,251.017,903.459,0,0.00119947,0.000371803,0.000661912,0.00276166,4.16534e-05,0.000998682,0.00147819,0.000254131
922,4,-20.3909,15.9822,-1736.72,-177668,70079.5,36990.8,894.352,928.301,0,70.1761,151.396,-1636.93,-127385,-67185.2,-104050,250.957,903.819,0,0.000660631,-0.000302504,-0.00159031,0.00146021,0.00030671,-0.000979253,0.000703669,-0.000219748
922,5,-21.3065,16.1348,-1737.02,-177152,70286.7,35975.3,894.464,927.986,0,70.3287,151.243,-1636.62,-126924,-67222.1,-103994,250.926,903.552,0,-0.000382641,-0.000214376,-5.58727e-05,-0.0002436,-0.000851884,0.000163058,-0.000174929,-0.000109461
922,6,-20.6961,16.1348,-1736.72,-177179,70079.5,36395.9,894.352,928.02,0,70.4813,151.701,-1636.93,-127629,-67063.1,-103376,251.031,903.969,0,-0.000597338,-0.000276653,-0.000414093,-0.000269283,-0.000440786,-0.000430004,-0.000548593,-0.000142698
922,7,-20.8487,16.2874,-1737.02,-177640,70042.5,36058.7,894.323,928.267,0,70.4813,151.243,-1637.23,-126381,-67392.4,-103370,250.838,903.192,0,-0.000176672,-0.000128766,-0.000200571,-0.000176623,-0.000155418,-0.000185427,-0.000160325,-0.000122387
922,8,-21.0013,16.5926,-1736.72,-177423,70445.7,36496.4,894.563,928.16,0,70.1761,151.701,-1636.93,-126652,-66941,-103403,251.106,903.372,0,-0.000319524,-0.000287229,-0.000263856,-0.000189212,-0.000519682,-4.3414e-05,-0.000206487,-0.000295622
922,9,-20.3909,15.9822,-1736.41,-177939,70726.7,35770.1,894.732,928.475,0,69.8709,151.548,-1636.32,-127195,-66526.6,-103998,251.344,903.732,0,-0.00482498,-0.00416823,-0.00409265,-0.00389027,-0.00395064,-0.00388782,-0.00513244,-0.0040373
923,0,-20.6961,16.44,-1736.41,-177451,70116.4,36481,894.38,928.194,0,70.3287,152.006,-1636.01,-127954,-66807.7,-103719,251.164,904.211,0,-0.00417518,-0.00294854,-0.0029631,-0.00292421,-0.00301665,-0.00285647,-0.00402588,-0.00307662
923,1,-20.3909,16.2874,-1736.41,-177695,69628.1,35977.3,894.099,928.335,0,70.1761,151.243,-1636.32,-127439,-66404.5,-103641,251.418,903.882,0,-0.00350658,-0.00338985,-0.00299399,-0.00309191,-0.00302689,-0.00360749,-0.00337558,-0.00319479
923,2,-21.3065,16.44,-1736.41,-177206,69750.2,36060.5,894.169,928.053,0,70.3287,151.701,-1636.93,-125676,-66941,-103511,251.106,902.775,0,-4.74174e-05,-0.00029579,-0.00153089,-0.000101084,0.00112404,-0.00150903,1.66035e-05,-0.000243416
923,3,-20.8487,16.1348,-1737.63,-176610,70334.9,36016.1,894.477,927.638,0,70.0235,151.396,-1636.32,-126707,-66770.7,-103575,251.195,903.434,0,-0.00103815,0.000188161,0.000416495,-0.000786639,-9.09588e-05,0.00181702,-0.000971609,0.0001937
923,4,-20.6961,16.1348,-1735.5,-178509,69494.8,36151.7,894.043,928.857,0,69.8709,152.006,-1636.93,-126896,-67063.1,-104126,251.031,903.521,0,0.000272027,0.000381371,0.000211198,0.000286345,0.000305535,7.69441e-05,2.28145e-05,0.000364081
923,5,-20.3909,16.44,-1737.02,-175199,69676.3,37240.6,894.113,926.862,0,69.2606,151.091,-1637.54,-125133,-66501,-104169,251.39,902.415,0,0.000379627,0.000399669,0.000508149,0.000400324,0.000432272,0.000250011,0.000622759,0.000570889
923,6,-20.2383,16.2874,-1735.5,-178509,69983,35990.9,894.325,928.857,0,70.7864,151.396,-1637.23,-126625,-66660,-103141,251.285,903.341,0,0.000574852,0.000448013,0.000387958,0.000443633,0.000399203,0.000429961,0.000388085,0.000418133
923,7,-19.9332,15.9822,-1735.8,-178970,69579.9,36299.1,894.085,929.105,0,70.3287,151.701,-1636.62,-127168,-67100,-103878,251.001,903.701,0,0.00471621,0.00551296,0.00552911,0.00548541,0.00546297,0.00550347,0.00549567,0.00551178
923,8,-21.3065,15.8296,-1736.11,-178210,69665,35035.7,894.127,928.649,0,70.0235,151.243,-1636.01,-128199,-66807.7,-104021,251.164,904.36,0,0.00346546,0.00314726,0.00421474,0.00438322,0.00370393,0.003474,0.00344824,0.00335725
923,9,-20.5435,16.2874,-1735.8,-177749,69946.1,36452,894.296,928.402,0,70.1761,151.091,-1636.32,-128416,-66892.8,-103233,251.12,904.478,0,0.00315911,0.00307105,0.00287888,0.00310343,0.00441987,0.00342918,0.00327953,0.00317546
924,0,-20.3909,16.1348,-1736.41,-177695,69994.3,36423,894.31,928.335,0,70.1761,151.243,-1636.62,-127412,-67222.1,-103885,250.926,903.851,0,-0.00080851,0.000261013,0.000673494,-0.000237725,-0.000773492,0.00202634,-9.23399e-05,-0.000369146
924,1,-20.5435,16.2874,-1737.02,-177152,70164.6,36330,894.394,927.986,0,70.3287,151.701,-1636.32,-127439,-66770.7,-103878,251.195,903.882,0,-0.000513574,0.00182634,-0.000922048,-2.73921e-05,0.00044184,-0.00046643,-0.00120057,0.00149112
924,2,-20.8487,15.8296,-1736.11,-177234,70031.2,35808.9,894.338,928.087,0,70.0235,151.548,-1636.62,-126191,-66367.6,-103984,251.448,903.105,0,-0.000188087,-0.000617081,-0.000114961,-0.000232689,-0.000179423,-0.000221014,-0.000255,-0.000428066
924,3,-21.1539,15.8296,-1737.02,-177640,70286.7,35781.7,894.464,928.267,0,70.3287,151.701,-1636.93,-127873,-66941,-103878,251.106,904.118,0,-0.000177008,-0.000332888,8.89935e-05,-0.000232018,-9.51554e-05,-0.000263483,-0.000187351,-0.000141188
924,4,-20.2383,15.9822,-1736.72,-178156,70079.5,37004.4,894.352,928.582,0,70.3287,151.243,-1637.84,-126083,-67074.4,-103384,251.047,902.981,0,-0.000119599,-0.000166871,-0.000231626,-0.000273816,-0.000301795,-0.000347415,-2.2173e-05,-0.000176943
924,5,-20.5435,16.7451,-1737.33,-176881,70371.8,36457.7,894.506,927.812,0,70.1761,151.701,-1637.23,-128334,-67270.3,-104135,250.912,904.385,0,-0.000215281,-0.000176439,-0.000213497,-0.000266094,-1.82329e-06,-0.000144804,-0.000172746,-0.000205479
924,6,-21.0013,16.2874,-1737.02,-176664,70286.7,35923,894.464,927.705,0,70.6339,151.548,-1636.62,-127656,-67344.2,-103197,250.852,904,0,-0.00444359,-0.00449909,-0.00444282,-0.00454846,-0.00501624,-0.00482047,-0.00459293,-0.00455046
924,7,-20.3909,16.5926,-1735.8,-178481,69946.1,36794.9,894.296,928.824,0,70.3287,151.853,-1636.62,-127656,-66978,-104042,251.076,904,0,-0.00401,-0.00398409,-0.00408074,-0.00520212,-0.00404733,-0.00404763,-0.00391795,-0.00393557
924,8,-20.5435,16.7451,-1737.02,-176176,69920.5,36457.7,894.253,927.424,0,70.6339,151.396,-1636.62,-128144,-67100,-103155,251.001,904.298,0,-0.000880524,-0.000769836,-0.00194937,-0.00146649,0.000748526,-0.00208228,-0.00106763,-0.000398858
924,9,-21.0013,16.1348,-1736.72,-176935,69835.3,36368.7,894.211,927.879,0,70.1761,151.396,-1636.62,-125947,-66978,-103318,251.076,902.955,0,-0.000997692,-0.000366964,0.000397527,-0.000691292,-0.00135178,0.00165587,-0.000372,-0.000738949
925,0,-20.2383,16.44,-1736.72,-177423,69713.3,36765.9,894.141,928.16,0,70.4813,151.853,-1637.23,-127113,-66904.1,-103540,251.136,903.639,0,-0.000286287,0.000981651,0.000450571,0.000558451,0.000553805,0.000517082,3.60757e-05,0.000858271
925,1,-20.5435,15.9822,-1736.11,-176257,70275.4,36244.8,894.479,927.524,0,70.0235,151.243,-1636.93,-126652,-66819,-104143,251.18,903.372,0,0.000476484,0.000510626,0.000609706,0.000237329,0.000566395,0.000499624,0.000513311,0.000478061
925,2,-21.0013,16.44,-1737.02,-176908,70530.8,35965.6,894.604,927.846,0,70.3287,151.243,-1636.93,-127141,-67185.2,-104116,250.957,903.67,0,0.000232747,0.000133605,0.000188201,0.000192845,0.000238389,9.63083e-06,0.000306839,0.000314562
925,3,-20.5435,15.9822,-1736.41,-177695,70482.6,36611,894.591,928.335,0,70.6339,151.396,-1638.45,-125052,-67122.6,-103155,251.033,902.323,0,0.000307278,0.000592208,0.000400716,0.000320757,0.000354551,0.000326557,0.000263027,0.000507437
925,4,-20.8487,15.9822,-1737.02,-175931,70042.5,35973.5,894.323,927.283,0,70.3287,151.396,-1637.54,-126842,-67233.4,-103548,250.942,903.459,0,0.00386917,0.00346838,0.00507873,0.0040208,0.00395606,0.00371522,0.00376097,0.0032426
925,5,-20.3909,16.1348,-1736.11,-179187,70153.3,36911.3,894.408,929.212,0,70.3287,151.396,-1636.01,-127466,-66319.4,-103304,251.463,903.913,0,0.00259089,0.00302489,0.00388472,0.00302235,0.00288727,0.00286314,0.00272391,0.00304218
925,6,-21.0013,15.8296,-1736.41,-177939,70116.4,36039.4,894.38,928.475,0,70.0235,151.243,-1636.93,-127385,-66941,-103533,251.106,903.819,0,0.00327745,0.00317093,0.00300529,0.00285382,0.00318741,0.0041854,0.00316522,0.00308616
925,7,-20.6961,16.7451,-1736.72,-176447,70201.5,36566.2,894.422,927.598,0,70.3287,151.396,-1636.62,-127900,-67222.1,-104159,250.926,904.149,0,0.000242819,-0.00113695,0.000704717,0.00146156,-0.00109344,0.000469912,0.000260845,-0.00117573
925,8,-20.8487,16.44,-1735.8,-178726,69946.1,36223.3,894.296,928.964,0,70.939,151.396,-1635.71,-128470,-66722.5,-103128,251.209,904.541,0,-0.00125419,0.000585661,-3.5897e-05,-0.00119673,0.0005298,0.00135355,-0.00134242,0.00051348
925,9,-19.7806,16.1348,-1735.19,-178536,69409.6,37209.8,894.001,928.891,0,70.4813,150.938,-1636.32,-127195,-67137,-104017,250.971,903.732,0,-0.000170461,-0.000156295,-0.000377331,-3.41066e-05,-7.90405e-05,-0.000216313,-0.00021488,-0.000129269
926,0,-20.3909,15.9822,-1735.8,-177505,69946.1,36868.7,894.296,928.261,0,70.6339,152.159,-1635.71,-127493,-66722.5,-104222,251.209,903.944,0,-0.000267151,-0.000250635,-0.00037431,-0.000473405,-0.000348629,-0.000403313,-0.000263728,-0.000312576
926,1,-20.6961,15.9822,-1736.72,-176935,70079.5,35987.1,894.352,927.879,0,70.4813,152.006,-1635.71,-127005,-65990.1,-103095,251.657,903.645,0,-0.000319524,-0.000233512,-0.00031539,-0.000280866,-0.00047117,-0.000232596,-0.000329027,-0.000256846
926,2,-20.8487,16.8977,-1736.11,-177234,70153.3,36473.1,894.408,928.087,0,69.108,150.633,-1636.93,-125920,-67063.1,-104543,251.031,902.925,0,-0.0049732,-0.00520915,-0.0054322,-0.00536461,-0.00535835,-0.00549747,-0.0054675,-0.0053985
926,3,-20.8487,16.2874,-1736.11,-179431,69665,36424.9,894.127,929.353,0,70.1761,151.396,-1636.62,-126924,-66489.7,-103440,251.374,903.552,0,-0.00360109,-0.00489374,-0.00363539,-0.00363344,-0.00339502,-0.00337701,-0.00336585,-0.00421826
926,4,-20.3909,16.2874,-1736.72,-177912,69713.3,35733.2,894.141,928.441,0,70.4813,150.938,-1636.01,-127710,-66563.5,-103529,251.314,904.062,0,-0.00312805,-0.00303113,-0.00325552,-0.00414005,-0.0033878,-0.00311649,-0.00313856,-0.00315786
926,5,-21.1539,16.5926,-1736.72,-177668,70079.5,36482.8,894.352,928.301,0,70.3287,151.091,-1637.23,-126625,-67392.4,-103707,250.838,903.341,0,-0.00168056,4.54766e-05,-0.000242705,-0.0013416,-0.000605125,0.00122597,-0.00157189,-0.000311905
926,6,-21.0013,16.44,-1736.72,-178156,69957.4,35721.4,894.281,928.582,0,70.4813,151.701,-1635.71,-129691,-66234.2,-103864,251.507,905.287,0,0.00172421,-0.000671804,-0.000310186,0.000525886,-0.000526061,-0.00121812,0.00113508,0.000364249
926,7,-20.2383,16.2874,-1736.11,-176989,69543,36601.3,894.057,927.946,0,70.1761,151.243,-1636.32,-128416,-66770.7,-103519,251.195,904.478,0,0.000453991,0.000287032,0.000258032,0.000179751,0.000143379,0.000328739,0.000304321,0.000299286
926,8,-20.8487,15.9822,-1736.41,-177206,69872.2,35973.5,894.24,928.053,0,70.4813,151.091,-1637.23,-126869,-67148.2,-102961,250.987,903.49,0,0.000425286,0.000325641,0.000292612,0.000380348,0.000124578,0.00053454,0.000389428,0.000286025
926,9,-20.3909,15.8296,-1736.41,-176718,69994.3,36215.8,894.31,927.772,0,70.4813,151.396,-1636.62,-127412,-66611.8,-103657,251.299,903.851,0,0.0004179,0.000349309,0.000280694,0.000345768,0.000411457,0.000406292,0.000425351,0.000348806
927,0,-20.2383,16.1348,-1736.72,-176691,69957.4,36924.9,894.281,927.739,0,69.8709,151.701,-1636.93,-126652,-66819,-104407,251.18,903.372,0,0.000154858,0.000190846,0.000210023,0.000157258,-1.8106e-05,0.000289124,0.000258327,0.00010255
927,1,-20.5435,16.1348,-1735.8,-177017,69946.1,36287.4,894.296,927.98,0,70.7864,151.853,-1637.23,-126381,-67148.2,-102659,250.987,903.192,0,0.00431451,0.00436645,0.00396026,0.00548541,0.00463473,0.00465525,0.00437065,0.00457645
927,2,-20.0858,16.44,-1736.41,-178671,70116.4,36413.3,894.38,928.897,0,70.6339,151.548,-1636.32,-128416,-67014.9,-103442,251.045,904.478,0,0.00400212,0.00370188,0.00456658,0.00505837,0.00416354,0.00408233,0.00402418,0.00368962
927,3,-20.5435,15.9822,-1735.19,-178292,69653.8,36122.7,894.142,928.75,0,70.0235,151.548,-1636.93,-126652,-66941,-103862,251.106,903.372,0,0.0012406,6.20951e-05,0.00135183,0.00269871,-0.000209303,0.00131007,0.00134054,0.000286361
927,4,-20.2383,16.1348,-1737.63,-177586,70334.9,36436.6,894.477,928.2,0,70.0235,151.548,-1636.32,-127195,-66526.6,-104350,251.344,903.732,0,-0.00107911,0.000215858,0.000303019,-0.000501606,-0.000904593,0.00180006,-0.000502766,-0.000429241
927,5,-20.3909,15.677,-1737.02,-176908,69798.4,36539.5,894.183,927.846,0,70.3287,151.701,-1635.71,-127738,-66478.4,-104366,251.358,904.093,0,-0.000156529,-0.0010307,0.000238392,-0.000282377,-0.000259494,-0.00015924,-0.000182986,-0.00100149
927,6,-20.2383,16.1348,-1736.41,-178183,69994.3,36558.7,894.31,928.616,0,70.1761,151.701,-1635.4,-128009,-66515.3,-103647,251.328,904.274,0,-0.000247007,-0.000312744,-0.000409225,-0.000623307,-7.19902e-05,-0.000226217,-0.000273465,-0.000398187
927,7,-20.3909,15.8296,-1736.11,-178943,69787.1,36215.8,894.198,929.071,0,69.7183,151.548,-1635.4,-127521,-66271.2,-103767,251.477,903.975,0,-0.000140078,-0.000117519,-0.000133929,-0.000225135,-0.000173548,-0.00018358,-6.2628e-05,-0.000112819
927,8,-20.2383,16.1348,-1736.72,-178644,70201.5,36802.8,894.422,928.863,0,70.3287,151.853,-1636.32,-126707,-66404.5,-104164,251.418,903.434,0,-0.000178854,-0.000283032,-0.000356348,-0.000343983,-0.000357022,-0.000248879,-0.000335742,-0.000309219
927,9,-20.6961,15.9822,-1737.02,-177396,70408.8,36475.4,894.534,928.127,0,70.0235,151.243,-1635.4,-128985,-66881.5,-104265,251.104,904.871,0,-0.00525588,-0.00411586,-0.00396961,-0.00385921,-0.0038224,-0.00389269,-0.00512522,-0.00395253
928,0,-20.2383,15.8296,-1736.72,-177179,70079.5,36839.8,894.352,928.02,0,70.6339,151.548,-1635.71,-127493,-66722.5,-103564,251.209,903.944,0,-0.00303942,-0.00280619,-0.00277761,-0.00295325,-0.00420143,-0.00307016,-0.00313285,-0.00304036
928,1,-20.5435,16.1348,-1737.33,-176637,70371.8,36287.4,894.506,927.672,0,70.4813,152.006,-1637.23,-126869,-67026.2,-104071,251.061,903.49,0,-0.00319788,-0.00305412,-0.00306449,-0.00423892,-0.00297905,-0.00308728,-0.00289616,-0.00287585
928,2,-21.1539,16.2874,-1736.72,-177912,70079.5,36031.5,894.352,928.441,0,70.1761,151.396,-1637.23,-126625,-67026.2,-103562,251.061,903.341,0,-0.000574677,-0.00172666,0.000520235,0.000569866,-0.00165226,9.77591e-05,-0.000385262,-0.00175016
928,3,-20.5435,16.1348,-1737.02,-177396,70164.6,36165.3,894.394,928.127,0,70.7864,151.548,-1636.62,-127412,-66733.8,-103306,251.225,903.851,0,-0.000445925,-0.00117623,0.00175269,-8.66479e-05,-0.000631479,0.000670845,-0.000195744,-0.00135618
928,4,-20.2383,16.44,-1736.41,-176962,69872.2,36765.9,894.24,927.913,0,70.4813,152.159,-1636.62,-127412,-66733.8,-103625,251.225,903.851,0,0.000143779,0.000278303,0.000157817,0.000317903,0.000261387,0.000389842,0.000311875,0.000408733
928,5,-20.5435,16.7451,-1735.8,-177749,69824,36701.8,894.226,928.402,0,70.939,151.396,-1636.32,-127927,-67014.9,-102884,251.045,904.18,0,0.000486724,0.00041763,0.000473065,0.000216849,0.000503446,0.000327061,0.000386575,0.000421491
928,6,-20.6961,16.44,-1736.11,-177722,69787.1,36114.8,894.198,928.368,0,70.4813,151.396,-1636.32,-128171,-67014.9,-103535,251.045,904.329,0,0.0004085,0.000435927,0.000349518,0.000395288,0.000148582,0.000558376,0.000486285,0.000322283
928,7,-21.1539,15.677,-1735.19,-178536,69775.8,36105.3,894.212,928.891,0,70.3287,151.396,-1636.93,-126896,-66819,-103670,251.18,903.521,0,0.00478588,0.00551296,0.00552911,0.00548541,0.00546297,0.00550347,0.0051967,0.00551665
928,8,-21.3065,15.9822,-1736.11,-178210,69665,36665.2,894.127,928.649,0,70.4813,151.701,-1636.01,-126246,-66807.7,-103620,251.164,903.167,0,0.00360026,0.00332536,0.00340984,0.00458113,0.00364216,0.00343153,0.00330874,0.00320483
928,9,-21.1539,16.2874,-1736.11,-178454,69909.2,36153.6,894.268,928.79,0,70.1761,151.243,-1635.71,-127982,-66600.5,-103763,251.283,904.242,0,0.00315676,0.00296278,0.00271287,0.00402618,0.00369436,0.00348323,0.00316589,0.00308397
929,0,-20.3909,15.8296,-1737.02,-176420,70164.6,36704.1,894.394,927.565,0,69.8709,151.243,-1636.93,-127385,-66941,-104401,251.106,903.819,0,0.000827319,0.000112958,-0.0012984,0.00169287,0.00073409,-0.000842612,0.000879925,8.82817e-05
929,1,-20.8487,16.1348,-1736.41,-177695,69750.2,36382.3,894.169,928.335,0,70.3287,151.243,-1637.84,-127059,-67074.4,-103506,251.047,903.577,0,-0.000102141,0.000512641,-0.000553588,-0.000967595,0.00194069,-0.000542136,-0.000404566,0.000746978
929,2,-20.6961,16.44,-1736.41,-177695,69872.2,36236.9,894.24,928.335,0,70.1761,151.091,-1636.93,-127141,-66696.9,-103843,251.255,903.67,0,-0.000267486,-0.000499408,-0.000115296,-0.000157654,-0.0001341,-0.000274058,-0.000153442,-0.000430249
929,3,-20.5435,16.8977,-1736.72,-177423,69713.3,36012,894.141,928.16,0,70.1761,151.701,-1636.32,-128660,-67014.9,-104013,251.045,904.628,0,-0.000157536,-0.000228141,-0.000194528,-0.000204656,-0.000265537,-0.000131878,-0.000142867,-0.000209676
929,4,-21.0013,15.8296,-1736.11,-177234,69787.1,35429.1,894.198,928.087,0,70.1761,151.243,-1636.32,-127439,-66404.5,-103519,251.418,903.882,0,-0.000307941,-0.000328859,-0.000309347,-0.000251154,-0.00011127,-0.000214467,-0.000258693,-0.000290586
929,5,-20.5435,16.1348,-1736.72,-177423,70201.5,36531.5,894.422,928.16,0,70.4813,151.548,-1636.01,-128199,-66075.2,-103333,251.612,904.36,0,-0.000240293,-0.00021639,-0.000413422,-3.07494e-05,-6.93044e-05,-0.000241829,-0.000193394,-0.000150252
929,6,-20.6961,16.2874,-1736.11,-176989,69665,35950.2,894.127,927.946,0,70.0235,151.548,-1636.62,-127412,-67222.1,-104472,250.926,903.851,0,-0.00452333,-0.00448549,-0.00447622,-0.00551552,-0.0044868,-0.00448693,-0.00447878,-0.00451252
929,7,-20.6961,16.2874,-1736.11,-176501,69543,35706,894.057,927.665,0,70.6339,151.396,-1637.23,-126381,-67148.2,-103277,250.987,903.192,0,-0.00395024,-0.00388219,-0.00401225,-0.00414491,-0.00502598,-0.00419568,-0.00399449,-0.00385668
929,8,-20.6961,16.44,-1737.02,-176420,70042.5,36358.9,894.323,927.565,0,70.1761,151.396,-1636.93,-128117,-67185.2,-103440,250.957,904.267,0,0.000737512,-0.00214514,-0.000962839,-0.000666448,-0.00174827,-0.00159665,0.00103738,-0.00179632
929,9,-20.8487,15.9822,-1736.72,-177912,69835.3,35607.3,894.211,928.441,0,69.8709,151.701,-1637.23,-127113,-67026.2,-103796,251.061,903.639,0,-0.00060187,-0.00118244,0.00160833,-0.000298827,-0.00073824,0.000555187,-0.000640246,-0.00136273
930,0,-20.3909,16.1348,-1735.8,-178481,69824,36301,894.226,928.824,0,70.0235,151.243,-1635.71,-128470,-66478.4,-103411,251.358,904.541,0,0.000381474,0.000425016,0.000488676,0.000406199,0.000172923,0.000938755,0.000534127,0.000365424
930,1,-20.3909,16.5926,-1737.02,-177152,70408.8,36428.7,894.534,927.986,0,69.7183,151.396,-1636.93,-127385,-66574.8,-104213,251.329,903.819,0,0.000550176,0.000394465,0.000480955,0.000453369,0.000477427,0.000309603,0.000695276,0.000607987
930,2,-20.5435,15.9822,-1737.02,-177152,70164.6,35634.5,894.394,927.986,0,70.0235,151.853,-1636.62,-127168,-66855.9,-104314,251.15,903.701,0,0.000102988,0.000258663,5.42457e-05,0.000274762,0.000272633,0.000230875,0.000158616,0.000157106
930,3,-20.5435,15.9822,-1736.41,-177695,69994.3,35390.3,894.31,928.335,0,70.3287,151.243,-1636.93,-126652,-66574.8,-103139,251.329,903.372,0,0.00045013,0.000444992,0.000366304,0.000361715,0.000360762,0.000335622,0.000291228,0.00041528
930,4,-20.2383,16.2874,-1736.11,-177478,69787.1,36723.3,894.198,928.228,0,70.0235,151.701,-1636.93,-128117,-66452.8,-103416,251.404,904.267,0,0.00388797,0.00372253,0.00357686,0.00414636,0.00486538,0.00395812,0.00372672,0.00366075
930,5,-20.2383,16.44,-1736.11,-178454,69665,36521.8,894.127,928.79,0,70.7864,150.938,-1635.71,-128958,-66478.4,-103380,251.358,904.839,0,0.00392944,0.00312896,0.00300327,0.00289528,0.00277397,0.00316244,0.00422763,0.0031862
930,6,-20.6961,15.8296,-1737.02,-177396,70286.7,35700.4,894.464,928.127,0,70.939,151.701,-1636.93,-126896,-66941,-103213,251.106,903.521,0,0.00320779,0.00317714,0.00310852,0.00278617,0.00274946,0.00406572,0.00310647,0.00309824
930,7,-20.2383,15.677,-1736.72,-177179,69957.4,36797.2,894.281,928.02,0,70.4813,150.938,-1636.93,-127873,-67063.1,-103163,251.031,904.118,0,3.65143e-05,0.000493336,-0.000328483,-0.00107855,0.00184031,-0.000182741,-0.000557993,0.000720288
930,8,-21.0013,15.9822,-1736.41,-177451,70238.5,36082,894.45,928.194,0,70.1761,151.243,-1637.23,-127358,-67392.4,-103275,250.838,903.788,0,0.000380467,-0.00120678,0.00066124,-0.000215399,-0.00148842,0.000984582,0.000931124,-0.0013075
930,9,-20.6961,15.9822,-1736.72,-176935,69835.3,36231.2,894.211,927.879,0,70.1761,151.091,-1636.93,-127141,-66819,-104087,251.18,903.67,0,-0.000446597,-0.000254328,-0.000203257,-0.000223624,-0.000253954,-0.000114252,-0.000413631,-0.000123562
931,0,-20.6961,16.44,-1736.11,-177478,70153.3,36481,894.408,928.228,0,70.939,151.243,-1637.23,-127113,-66904.1,-103207,251.136,903.639,0,-0.000350411,-0.000260874,-0.000433062,-0.000226646,-0.000235825,-0.000236289,-0.000240899,-0.00029344
931,1,-20.6961,16.44,-1736.41,-177939,71093,36358.9,894.942,928.475,0,70.6339,151.396,-1636.01,-128931,-66807.7,-103155,251.164,904.808,0,-0.000249189,-0.000338259,-0.000267381,-0.000297317,-0.000380355,-0.000154372,-0.000127423,-0.000225791
931,2,-21.0013,15.9822,-1737.02,-176176,70286.7,35837.9,894.464,927.424,0,70.7864,151.091,-1636.93,-129094,-66696.9,-103300,251.255,904.863,0,-0.00550264,-0.00515762,-0.00528633,-0.00551552,-0.00544278,-0.00548236,-0.0054675,-0.00543611
931,3,-20.5435,15.8296,-1736.72,-177423,69957.4,35958.1,894.281,928.16,0,70.4813,151.396,-1636.93,-126896,-66941,-103291,251.106,903.521,0,-0.00352572,-0.0048751,-0.0035429,-0.00365677,-0.00351403,-0.00329845,-0.00332287,-0.00412392
931,4,-20.0858,16.1348,-1736.11,-178454,70397.5,37182.6,894.549,928.79,0,70.0235,151.548,-1636.62,-128388,-66733.8,-103740,251.225,904.447,0,-0.00304848,-0.00387951,-0.00345007,-0.00331768,-0.00308631,-0.00304632,-0.00305563,-0.00334872
931,5,-20.3909,16.1348,-1736.72,-177423,70079.5,36789.2,894.352,928.16,0,70.3287,151.243,-1636.32,-127439,-67259,-103628,250.896,903.882,0,-0.0010123,-0.00161066,0.00127109,-0.000682899,-0.00102495,0.000281066,-0.000860147,-0.00186934
931,6,-21.0013,16.1348,-1736.11,-177722,69909.2,35636.3,894.268,928.368,0,69.5657,151.396,-1636.01,-128687,-66807.7,-103982,251.164,904.659,0,0.00136801,0.000222405,-0.000995908,0.000740751,-0.000395799,-0.00144088,0.00123999,0.000550578
931,7,-20.5435,16.44,-1736.41,-177939,69994.3,36372.5,894.31,928.475,0,70.6339,151.243,-1637.84,-126815,-66830.2,-103112,251.196,903.428,0,9.71131e-05,0.00028015,0.00021338,0.000192677,0.000266087,0.000212578,-6.72952e-06,0.000245402
931,8,-20.3909,16.1348,-1736.11,-177478,69909.2,36911.3,894.268,928.228,0,70.7864,151.243,-1636.62,-127656,-67344.2,-103343,250.852,904,0,0.000305599,0.000240702,0.000114844,0.000306992,0.000262226,0.000270659,0.000391275,0.000249263
931,9,-20.5435,16.2874,-1736.11,-178210,70031.2,36330,894.338,928.649,0,70.4813,151.548,-1636.32,-127927,-66404.5,-103699,251.418,904.18,0,0.000337829,0.000179767,0.000553472,0.000450347,0.000391313,0.000483509,0.000362234,0.000279982
932,0,-20.8487,16.8977,-1736.11,-176745,70031.2,36351,894.338,927.806,0,70.0235,151.396,-1636.62,-127412,-66733.8,-103453,251.225,903.851,0,0.000204378,3.84263e-05,0.000560186,0.000280302,0.000180476,0.000162722,0.00023533,0.000132262
932,1,-20.0858,16.44,-1736.41,-177206,70238.5,36779.5,894.45,928.053,0,70.4813,151.548,-1636.62,-127412,-66855.9,-103577,251.15,903.851,0,0.00425979,0.00442604,0.003924,0.00520189,0.0053829,0.0046299,0.00446196,0.00454892
932,2,-20.2383,16.8977,-1736.41,-177451,69994.3,36649.5,894.31,928.194,0,70.6339,151.701,-1637.23,-128578,-67148.2,-103484,250.987,904.534,0,0.00408924,0.00405355,0.00401952,0.00346685,0.00494662,0.0046289,0.00422393,0.00393219
932,3,-21.0013,16.2874,-1737.94,-175362,70298,36167.1,894.449,926.902,0,70.3287,151.396,-1637.23,-127113,-66782,-103426,251.21,903.639,0,0.00269681,-0.000134473,0.0012632,0.00131837,0.000257358,0.0002344,0.0028028,0.00026286
932,4,-21.0013,15.8296,-1736.41,-177206,70116.4,36039.4,894.38,928.053,0,70.939,151.396,-1638.15,-125323,-67281.6,-102884,250.928,902.503,0,-0.000846783,0.000230126,0.00147521,-0.0011504,0.000354719,0.000221978,-0.000455932,-0.000798205
932,5,-20.6961,15.8296,-1736.11,-177478,70031.2,36310.7,894.338,928.228,0,70.7864,151.091,-1636.93,-127629,-66941,-103422,251.106,903.969,0,-0.000227031,-0.000128262,-6.85658e-06,-0.000969106,0.000141029,-0.000241325,-0.000221763,-0.000340777
932,6,-20.6961,15.9822,-1735.8,-178237,69824,36353.3,894.226,928.683,0,70.7864,151.091,-1636.93,-127873,-67185.2,-103667,250.957,904.118,0,-0.000384655,-0.00024946,-0.000289707,-0.000400049,-0.000557787,-0.000291013,-0.000359579,-0.00036495
932,7,-20.2383,15.8296,-1736.72,-176447,70079.5,36839.8,894.352,927.598,0,70.3287,151.091,-1636.62,-128144,-66733.8,-103585,251.225,904.298,0,-0.000205881,-0.000132627,-8.7431e-05,-0.000144057,-0.000287527,-0.000111567,-0.000172075,-0.000229987
932,8,-20.6961,16.2874,-1736.11,-177966,69420.9,36682.6,893.987,928.509,0,70.3287,151.548,-1637.23,-127113,-66904.1,-103469,251.136,903.639,0,-0.000351922,-0.000328523,-0.000249923,-0.000323503,-0.000343593,-0.000238304,-0.000313752,-0.000352024
932,9,-21.459,16.44,-1736.72,-177668,69957.4,36535.2,894.281,928.301,0,70.1761,151.091,-1636.62,-127412,-66855.9,-103843,251.15,903.851,0,-0.0046034,-0.00398409,-0.00397213,-0.00374423,-0.00376717,-0.0037537,-0.00462096,-0.00380044
933,0,-20.3909,16.1348,-1736.41,-177695,69994.3,37033.4,894.31,928.335,0,70.0235,151.701,-1636.32,-128904,-67381.1,-103661,250.822,904.777,0,-0.00283227,-0.00373229,-0.00290435,-0.00300798,-0.00288202,-0.00290884,-0.00302273,-0.00354428
933,1,-20.5435,16.1348,-1737.33,-176881,69639.4,36165.3,894.084,927.812,0,70.4813,152.159,-1636.32,-127439,-66770.7,-103503,251.195,903.882,0,-0.00390156,-0.00323172,-0.00306785,-0.00295107,-0.00305459,-0.00296306,-0.00404771,-0.00253677
933,2,-20.3909,16.44,-1736.41,-177451,69872.2,36142,894.24,928.194,0,70.4813,151.396,-1636.62,-126435,-66978,-103168,251.076,903.254,0,-0.00119191,0.00149229,-0.00114195,-0.00070405,0.000127264,-0.000966999,-0.00159606,0.00123697
933,3,-20.5435,16.1348,-1736.41,-177939,69506,36409.4,894.029,928.475,0,69.8709,151.548,-1636.32,-127683,-66648.7,-103876,251.269,904.031,0,0.000174834,-0.00060533,-0.000436587,0.00183321,-0.000962842,2.12134e-05,0.000575085,-0.000442167
933,4,-20.6961,16.44,-1736.11,-178210,70031.2,36236.9,894.338,928.649,0,70.4813,151.701,-1636.62,-128144,-66733.8,-103620,251.225,904.298,0,0.0002356,0.00027931,0.000296137,0.000182269,0.000179301,0.000323871,0.000103221,0.000379021
933,5,-20.3909,16.44,-1736.41,-176718,69506,36386.1,894.029,927.772,0,70.7864,151.548,-1637.23,-126381,-67514.5,-102940,250.763,903.192,0,0.0001421,0.000522377,0.000524431,0.000380852,0.00041431,0.000522789,0.000348302,0.000603958
933,6,-20.5435,15.677,-1737.02,-177152,69920.5,36159.7,894.253,927.986,0,70.3287,151.701,-1636.93,-126652,-66696.9,-103389,251.255,903.372,0,0.000330779,0.000374825,0.000211702,0.000422818,0.000388627,0.000383798,0.000430891,0.000321276
933,7,-20.3909,15.9822,-1736.41,-177451,69994.3,36136.3,894.31,928.194,0,70.0235,151.548,-1636.93,-128117,-66696.9,-103374,251.255,904.267,0,0.00549829,0.00551296,0.00547019,0.00512837,0.00546297,0.00550347,0.00553344,0.00551665
933,8,-20.2383,15.677,-1736.41,-176718,70116.4,36308.9,894.38,927.772,0,70.0235,151.091,-1636.32,-126707,-67137,-104467,250.971,903.434,0,0.00378591,0.00353099,0.0034142,0.00304652,0.00373331,0.00439557,0.00349927,0.00336464
933,9,-20.5435,16.1348,-1736.11,-176989,69787.1,36287.4,894.198,927.946,0,69.8709,151.548,-1637.54,-126354,-67111.3,-103632,251.017,903.161,0,0.00305856,0.00310076,0.00300814,0.00292818,0.00427869,0.00332141,0.00329867,0.00310966
934,0,-20.5435,15.8296,-1736.72,-177668,70323.6,36324.3,894.492,928.301,0,70.1761,151.701,-1636.32,-126951,-66648.7,-103769,251.269,903.583,0,-0.00102254,0.00208703,0.000135827,-0.000438658,0.00100049,-0.000170655,-0.00106091,0.00183759
934,1,-20.8487,16.2874,-1737.02,-177396,69920.5,36180.7,894.253,928.127,0,70.0235,151.091,-1636.93,-127629,-66941,-103856,251.106,903.969,0,-0.000277558,-0.0014888,0.00149989,0.000418621,-0.000914329,0.000725065,-0.000184833,-0.0013545
934,2,-20.3909,16.1348,-1736.41,-177939,69872.2,36545.1,894.24,928.475,0,70.0235,151.091,-1637.54,-127086,-67111.3,-103490,251.017,903.608,0,-0.000306599,-0.000223776,-0.000242033,-0.000644794,-0.000218031,-0.000292859,-0.000198094,-0.000238884
934,3,-20.3909,15.9822,-1736.41,-177206,70238.5,36258.4,894.45,928.053,0,70.3287,151.243,-1636.32,-128171,-67137,-103628,250.971,904.329,0,-0.00029468,-0.000233177,-0.00029961,-0.000235543,-0.000326136,-0.000195163,-0.000250635,-0.000122219
934,4,-20.3909,15.9822,-1737.33,-178590,69883.5,36380.5,894.225,928.796,0,70.0235,151.548,-1636.62,-127168,-66611.8,-104106,251.299,903.701,0,-0.000303745,-0.000260203,-0.000495843,-0.000157822,-0.000206113,-0.000257944,-0.000236031,-0.000309387
934,5,-20.6961,15.9822,-1736.72,-177423,69835.3,35865,894.211,928.16,0,70.6339,151.853,-1637.23,-125893,-67026.2,-103405,251.061,902.894,0,-0.000236935,-0.000183321,-9.31384e-05,-0.000519232,-0.000101702,-0.000143629,-0.000159821,-0.000125408
934,6,-20.6961,16.2874,-1734.89,-178563,69568.6,36072.2,894.1,928.925,0,70.1761,151.548,-1637.23,-127846,-66660,-103971,251.285,904.087,0,-0.00461985,-0.00454257,-0.00457073,-0.00457162,-0.00462075,-0.00549747,-0.00464362,-0.00455079
934,7,-20.0858,16.5926,-1736.72,-177423,70079.5,37432.4,894.352,928.16,0,70.1761,151.701,-1637.84,-126083,-67074.4,-104135,251.047,902.981,0,-0.00484244,-0.00409639,-0.00406277,-0.00393425,-0.00387007,-0.00398535,-0.00427281,-0.00453115
934,8,-20.3909,16.1348,-1737.02,-176908,69554.3,36911.3,894.042,927.846,0,70.3287,152.311,-1636.01,-128443,-66319.4,-103804,251.463,904.51,0,-0.000571823,-0.00162611,-0.00206721,0.000837944,-0.00138938,-0.0013452,-0.000250132,-0.00126587
934,9,-20.6961,16.44,-1736.72,-177668,70079.5,36114.8,894.352,928.301,0,70.1761,152.006,-1637.23,-127358,-66904.1,-103976,251.136,903.788,0,-0.00135323,0.00048679,-0.000117814,-0.000811986,-0.00045153,0.00162783,-0.00120376,-0.000200443
935,0,-20.8487,16.1348,-1736.72,-177423,69957.4,36382.3,894.281,928.16,0,70.3287,151.548,-1637.54,-126598,-66989.2,-103469,251.092,903.31,0,0.0010447,0.000277128,0.000504959,0.000375648,0.000315607,-2.73111e-07,0.000798008,0.000537652
935,1,-20.5435,16.2874,-1736.72,-177423,70079.5,36696.2,894.352,928.16,0,70.939,151.701,-1637.23,-128090,-66904.1,-103335,251.136,904.236,0,0.000654755,0.000586836,0.000463161,0.000415096,0.000522582,0.000557201,0.000288207,0.000581968
935,2,-20.8487,15.5244,-1736.41,-177206,69872.2,35845.8,894.24,928.053,0,69.8709,152.006,-1636.93,-126408,-66819,-103637,251.18,903.223,0,0.000373416,0.000175067,0.000286065,0.000273587,-2.33098e-05,0.000382623,0.000326312,0.000202093
935,3,-20.6961,15.9822,-1736.41,-177695,70116.4,36353.3,894.38,928.335,0,70.7864,151.701,-1636.01,-126734,-66685.6,-103837,251.239,903.465,0,0.000424615,0.000351827,0.000357071,0.00039982,0.000306206,0.000431975,0.000509451,0.000428205
935,4,-20.2383,16.1348,-1737.63,-177586,70334.9,36680.8,894.477,928.2,0,70.0235,151.548,-1636.93,-127629,-67063.1,-104228,251.031,903.969,0,0.00407363,0.0038778,0.00369655,0.00324477,0.00453838,0.00449729,0.00398406,0.00373797
935,5,-21.1539,16.2874,-1737.63,-177342,70579,35665.3,894.618,928.06,0,70.939,151.853,-1636.93,-127385,-67185.2,-103133,250.957,903.819,0,0.00272619,0.00269453,0.00426879,0.00304468,0.00313622,0.00302244,0.00300222,0.0026294
935,6,-20.6961,16.2874,-1737.02,-177152,70286.7,36438.4,894.464,927.986,0,70.3287,151.396,-1634.49,-129311,-65527.5,-103914,251.909,905.114,0,0.00246936,0.00413732,0.00311322,0.00321993,0.00295979,0.00282655,0.00235662,0.00374502
935,7,-20.5435,16.5926,-1737.02,-177152,70042.5,37147.5,894.323,927.986,0,70.0235,151.243,-1636.32,-127439,-66892.8,-104143,251.12,903.882,0,-0.000930715,0.000368949,0.00171777,-0.00109014,0.000410953,0.000381616,-0.000644946,-0.000345813
935,8,-20.5435,16.5926,-1736.41,-177695,70116.4,36781.3,894.38,928.335,0,70.6339,151.243,-1636.62,-127900,-66733.8,-103479,251.225,904.149,0,-0.000457172,0.000571057,-0.000537473,-0.00129375,0.00129895,0.000184712,-0.000963048,0.00059758
935,9,-20.5435,15.677,-1736.41,-177695,70116.4,36770,894.38,928.335,0,70.1761,151.548,-1636.93,-127141,-66696.9,-104215,251.255,903.67,0,1.09991e-05,-0.000198261,-8.23951e-05,-0.000277341,-0.000187312,-0.000139768,-5.55778e-05,-9.26751e-05
936,0,-20.3909,15.9822,-1737.33,-176637,70005.6,36624.6,894.295,927.672,0,70.4813,151.701,-1636.01,-128687,-66685.6,-103376,251.239,904.659,0,-0.000287126,-0.00025886,-0.000307836,-0.00030101,-0.000229278,-0.000342211,-0.000202794,-0.000239388
936,1,-20.6961,16.2874,-1737.63,-176610,69602.5,35950.2,894.056,927.638,0,70.7864,150.48,-1636.32,-126707,-66770.7,-102398,251.195,903.434,0,-0.000341011,-0.000311905,-0.000220715,-0.000499592,-4.00962e-05,-0.000228735,-0.000235695,-0.000246102
936,2,-21.1539,15.9822,-1737.33,-176637,69883.5,35946.3,894.225,927.672,0,70.4813,151.396,-1638.45,-126028,-67366.8,-103901,250.884,902.919,0,-0.00527989,-0.00548797,-0.00524823,-0.00551552,-0.00553796,-0.00537845,-0.00536879,-0.00548428
936,3,-21.1539,16.1348,-1736.72,-177423,70079.5,35744.8,894.352,928.16,0,70.1761,151.548,-1636.93,-126408,-66696.9,-103971,251.255,903.223,0,-0.00364305,-0.00346203,-0.00336866,-0.00344677,-0.00472517,-0.00348059,-0.00347731,-0.00328745
936,4,-21.0013,15.9822,-1736.41,-178427,69750.2,36082,894.169,928.756,0,70.4813,151.701,-1637.23,-127358,-67026.2,-103864,251.061,903.788,0,-0.00315256,-0.00306285,-0.00417222,-0.0031557,-0.00323118,-0.00314889,-0.00308065,-0.00315048
936,5,-20.5435,16.1348,-1735.8,-177993,69702,36409.4,894.156,928.542,0,70.4813,151.853,-1636.93,-126652,-67063.1,-103296,251.031,903.372,0,-0.000690167,-0.00198013,0.00124994,-0.000487338,-0.00129101,0.000355933,-0.000860483,-0.00155258
936,6,-20.6961,15.8296,-1736.72,-176691,70201.5,36432.8,894.422,927.739,0,70.1761,152.006,-1636.32,-126462,-66648.7,-103732,251.269,903.285,0,-0.000685299,-0.00102465,0.00178744,-0.000837837,-0.000359205,0.000557201,-0.000661061,-0.00117271
936,7,-20.2383,16.1348,-1736.72,-177179,70445.7,36558.7,894.563,928.02,0,70.3287,151.548,-1636.32,-127927,-66770.7,-103347,251.195,904.18,0,0.000551519,0.000322283,0.000126931,0.000211478,0.000138343,0.00017313,0.000506093,0.000139312
936,8,-20.3909,16.44,-1735.5,-177776,69983,36386.1,894.325,928.435,0,70.1761,151.548,-1636.01,-127466,-66563.5,-103604,251.314,903.913,0,0.000368213,0.00024792,0.000315777,0.000330157,0.000260212,0.000257565,0.000289717,0.000233484
936,9,-20.3909,16.1348,-1736.72,-177179,70201.5,36301,894.422,928.02,0,69.8709,151.853,-1636.62,-127656,-66367.6,-103839,251.448,904,0,0.000340347,0.000571896,0.000493377,0.000366416,0.000371337,0.000417371,0.000430723,0.00035317
937,0,-20.3909,16.2874,-1736.72,-178400,69347,36709.7,893.93,928.723,0,70.4813,151.091,-1636.93,-127385,-66452.8,-103083,251.404,903.819,0,0.000262962,0.000156602,0.000150767,0.000229439,0.000166712,0.000172794,0.000197057,0.000292907
937,1,-20.6961,15.8296,-1737.33,-176881,70249.8,36066.6,894.436,927.812,0,69.8709,151.853,-1636.62,-126191,-66489.7,-103595,251.374,903.105,0,0.00453576,0.0044581,0.00438831,0.00410306,0.00481183,0.00550347,0.00467733,0.00439415
937,2,-20.5435,16.1348,-1736.72,-176935,70079.5,36043.2,894.352,927.879,0,70.3287,150.938,-1636.62,-127900,-66733.8,-103787,251.225,904.149,0,0.00517918,0.00425818,0.00396462,0.0040626,0.00389781,0.003661,0.00534258,0.00412422
937,3,-19.9332,16.1348,-1736.41,-177206,69628.1,36707.9,894.099,928.053,0,69.7183,151.396,-1637.23,-127113,-67026.2,-103969,251.061,903.639,0,0.00186858,0.00218976,-0.000187981,0.00155741,0.000857638,-0.000138928,0.00122925,0.0024006
937,4,-20.3909,16.2874,-1736.72,-177668,70689.8,36221.5,894.703,928.301,0,70.3287,150.633,-1636.32,-127683,-66404.5,-103457,251.418,904.031,0,-0.000970331,0.000453385,0.00154571,-0.00112958,0.000236879,0.000253872,-0.000837654,-0.000252649
937,5,-20.5435,15.9822,-1736.72,-177668,69957.4,35878.6,894.281,928.301,0,70.1761,151.243,-1636.93,-126652,-67063.1,-104130,251.031,903.372,0,-0.000249861,-0.000430584,-0.000281649,-3.84711e-05,-0.000238679,-0.00031166,-0.000112483,-0.000302504
937,6,-20.2383,16.5926,-1736.72,-177668,69957.4,36564.3,894.281,928.301,0,70.6339,151.548,-1637.54,-127086,-66378.9,-103442,251.464,903.608,0,-0.000369044,-0.000396676,-0.000225247,-0.000320482,-0.000323282,-0.00024569,-0.000273129,-0.000386268
937,7,-21.0013,15.9822,-1736.41,-178183,69628.1,35593.7,894.099,928.616,0,70.6339,151.853,-1635.71,-128958,-66600.5,-103649,251.283,904.839,0,-0.000196144,-0.000102411,-0.000263352,5.3686e-05,-0.000140646,-1.44816e-06,-0.00015915,-0.000120876
937,8,-20.6961,16.5926,-1737.02,-176664,69920.5,36157.4,894.253,927.705,0,70.1761,151.243,-1637.23,-127602,-66782,-103397,251.21,903.937,0,-0.000240796,-0.000301497,-0.000238508,-0.000176791,-0.000328989,-0.000465087,-0.000169725,-0.00021723
937,9,-21.3065,15.9822,-1736.41,-177695,69384,34712.1,893.958,928.335,0,70.0235,151.701,-1637.23,-127113,-67148.2,-104027,250.987,903.639,0,-0.00385271,-0.0038456,-0.00436963,-0.00417093,-0.00384942,-0.0038383,-0.00369452,-0.00375982
938,0,-19.9332,16.44,-1738.24,-176555,70016.9,36915.1,894.28,927.571,0,70.0235,151.853,-1635.71,-128226,-66722.5,-103947,251.209,904.392,0,-0.00279585,-0.0028589,-0.0037205,-0.00300479,-0.00307557,-0.00292832,-0.00302609,-0.00311439
938,1,-20.5435,15.9822,-1736.41,-178427,69872.2,36000.7,894.24,928.756,0,70.4813,151.396,-1637.54,-126110,-66867.2,-103779,251.166,903.012,0,-0.00294071,-0.00299587,-0.00305425,-0.0039277,-0.00283838,-0.00319337,-0.00286041,-0.00271554
938,2,-20.8487,16.5926,-1735.8,-177749,69702,35777.6,894.156,928.402,0,70.6339,151.243,-1636.32,-127195,-66770.7,-102990,251.195,903.732,0,-0.00154896,-0.00026826,-5.60406e-05,-0.000933687,-0.00133348,0.00141968,-0.000891874,-0.000693123
938,3,-21.0013,16.2874,-1737.02,-177152,70042.5,35923,894.323,927.986,0,70.6339,151.091,-1636.62,-127168,-67100,-102948,251.001,903.701,0,-0.00079676,-5.47379e-05,0.001726,-0.00100805,0.000215896,0.000424925,-0.000548089,-0.000892544
938,4,-20.0858,16.1348,-1736.72,-178400,69835.3,36816.4,894.211,928.723,0,70.0235,151.091,-1636.93,-126896,-67185.2,-103124,250.957,903.521,0,0.000313489,0.000153077,0.000407598,0.00025764,0.000469202,0.000472263,0.000256145,0.000280989
938,5,-20.8487,16.1348,-1738.55,-175796,70468.3,36260.2,894.533,927.116,0,70.4813,151.701,-1636.62,-127412,-67100,-103498,251.001,903.851,0,0.000470777,0.000341756,0.000434792,0.000408381,0.000407931,0.000284759,0.000613022,0.000444824
938,6,-20.5435,16.1348,-1736.41,-176962,70116.4,36287.4,894.38,927.913,0,70.7864,151.396,-1636.93,-127629,-66819,-102775,251.18,903.969,0,0.000179534,0.000369453,0.000397023,0.000319246,0.000408771,0.000325214,0.000159791,0.00049384
938,7,-20.3909,16.1348,-1735.5,-177532,69494.8,36423,894.043,928.295,0,70.0235,151.396,-1636.93,-127873,-66330.7,-103575,251.479,904.118,0,0.00478118,0.00551296,0.00552911,0.00548541,0.00537149,0.00550347,0.00506224,0.00551665
938,8,-20.8487,16.5926,-1735.8,-178237,69702,36632.1,894.156,928.683,0,70.4813,151.853,-1636.93,-127873,-67307.2,-103784,250.882,904.118,0,0.00443353,0.00356373,0.00336737,0.00328758,0.00313857,0.00291165,0.00433909,0.00339905
938,9,-20.6961,16.1348,-1737.33,-176148,69639.4,36151.7,894.084,927.39,0,70.6339,150.938,-1636.32,-127683,-67259,-102783,250.896,904.031,0,0.00323599,0.00308767,0.00307545,0.00295168,0.0032042,0.00417399,0.00319963,0.00323488
939,0,-21.0013,16.44,-1735.5,-178020,69616.8,35843.5,894.114,928.576,0,70.1761,151.396,-1636.93,-127385,-66941,-104050,251.106,903.819,0,0.00126813,0.00123328,-0.000821162,0.00081864,0.000140861,-0.000849998,0.000773332,0.00149095
939,1,-20.5435,16.2874,-1736.41,-177695,69994.3,36207.9,894.31,928.335,0,70.3287,151.701,-1636.62,-127168,-67222.1,-104122,250.926,903.701,0,0.000213946,-0.000809284,0.000844043,-0.000363958,-0.0010043,0.000498953,0.00140987,-0.00117657
939,2,-20.6961,16.44,-1737.33,-176881,70005.6,35992.7,894.295,927.812,0,70.6339,151.548,-1636.93,-126896,-66819,-103564,251.18,903.521,0,-0.000235592,-0.000335238,-0.000154576,-0.000290602,-0.000162804,-0.000532568,-0.000118694,-0.000213705
939,3,-20.5435,16.2874,-1736.72,-177668,69591.2,36574.1,894.071,928.301,0,70.6339,152.006,-1636.62,-126679,-67710.4,-104180,250.628,903.403,0,-0.000358804,-0.000157302,-0.000315725,-0.000210699,-0.000198224,-0.000195666,-0.000402384,-0.000102411
939,4,-20.8487,16.1348,-1736.11,-178698,69420.9,36260.2,893.987,928.931,0,70.3287,151.548,-1637.54,-125866,-67233.4,-104079,250.942,902.863,0,-0.000308445,-0.000357899,-2.81752e-05,-0.000216742,-0.00026218,-0.000262979,-0.000290251,-0.000251474
939,5,-20.0858,16.44,-1736.41,-177695,70238.5,36413.3,894.45,928.335,0,70.6339,151.853,-1637.54,-126842,-67599.6,-103893,250.719,903.459,0,-0.000171468,-0.000223441,-0.00015978,-0.000264247,-0.000343593,-0.000121806,-0.000270443,-0.00024392
939,6,-20.3909,16.2874,-1736.11,-178454,69909.2,35855.2,894.268,928.79,0,70.4813,151.548,-1636.93,-126896,-66819,-103699,251.18,903.521,0,-0.00536399,-0.00452947,-0.00442804,-0.00453335,-0.0045939,-0.00455626,-0.0054675,-0.00473326
939,7,-20.8487,16.2874,-1736.41,-176718,70360.5,35570.4,894.521,927.772,0,70.6339,151.548,-1636.32,-129148,-66526.6,-103075,251.344,904.926,0,-0.00401722,-0.00548092,-0.00403911,-0.00416204,-0.00396458,-0.00395581,-0.00388521,-0.00499295
939,8,-20.8487,16.44,-1737.02,-176908,70408.8,35612.9,894.534,927.846,0,70.939,151.396,-1637.84,-128280,-66952.3,-103616,251.122,904.322,0,-0.00125251,-0.00203956,-0.000247909,0.000276609,-0.0019388,-0.000430507,-0.00074835,-0.00193128
939,9,-20.8487,16.7451,-1736.72,-178644,70079.5,36430.5,894.352,928.863,0,70.6339,151.853,-1637.23,-127602,-66782,-103161,251.21,903.937,0,0.000252555,-0.000858132,-0.000768453,0.00175901,-0.000974256,-0.000273387,0.000378349,-0.000617584
940,0,-20.6961,15.9822,-1737.63,-176854,69968.7,36231.2,894.267,927.779,0,70.3287,150.633,-1637.84,-127303,-67196.5,-103091,250.973,903.726,0,0.000377109,-0.000170228,0.000939222,0.000394449,0.000407428,0.000516914,0.000542688,-0.000177782
940,1,-20.3909,16.1348,-1737.33,-177125,70005.6,37033.4,894.295,927.953,0,70.0235,151.243,-1637.23,-127602,-66660,-103533,251.285,903.937,0,0.000431329,0.000539331,0.000353211,0.00078171,0.000457451,0.000432815,0.000453384,0.000552928
940,2,-20.2383,15.9822,-1736.72,-178888,70079.5,36638.2,894.352,929.004,0,69.8709,151.243,-1636.93,-127141,-66941,-103546,251.106,903.67,0,0.00017433,0.000186146,0.000200455,7.24867e-05,0.000341625,0.000331929,0.000300125,0.000148377
940,3,-20.0858,15.9822,-1736.41,-178183,69994.3,37018,894.31,928.616,0,70.1761,151.853,-1636.32,-127927,-66770.7,-103812,251.195,904.18,0,0.000279916,0.000328327,0.000288247,0.000402171,0.000276662,0.000427947,0.000358038,0.000366264
940,4,-20.3909,16.1348,-1736.41,-178915,70116.4,36545.1,894.38,929.038,0,69.8709,151.548,-1636.62,-128144,-66367.6,-104120,251.448,904.298,0,0.00387152,0.00376953,0.00351492,0.00503554,0.00395438,0.00389181,0.00377523,0.00369667
940,5,-20.3909,16.1348,-1736.11,-177478,70153.3,36789.2,894.408,928.228,0,70.3287,152.006,-1636.62,-127900,-66733.8,-103230,251.225,904.149,0,0.00300921,0.00304436,0.00255474,0.00398354,0.00371266,0.00331318,0.00310227,0.00304335
940,6,-20.8487,15.3719,-1737.33,-176393,69883.5,36047.4,894.225,927.531,0,70.4813,151.701,-1636.32,-128660,-66648.7,-103376,251.269,904.628,0,0.00309381,0.00294683,0.00283272,0.00258893,0.00395623,0.00300952,0.00298242,0.00277712
940,7,-21.0013,16.5926,-1737.33,-176881,70249.8,35886.1,894.436,927.812,0,70.6339,151.701,-1637.54,-127086,-67355.5,-103850,250.868,903.608,0,0.00161225,-0.00106393,0.000360597,0.000313371,-0.000590688,-0.000671056,0.00192974,-0.000795519
940,8,-20.5435,16.2874,-1736.41,-177695,69872.2,36085.8,894.24,928.335,0,70.1761,151.853,-1636.01,-128199,-66685.6,-103812,251.239,904.36,0,0.00029217,-0.000550774,-0.00115941,0.00169992,-0.000286352,-0.0006259,0.000722134,-0.000519552
940,9,-20.2383,16.1348,-1736.41,-177695,70116.4,37169,894.38,928.335,0,69.8709,151.853,-1635.71,-128226,-67088.7,-104083,250.985,904.392,0,-0.000208063,-8.56248e-05,-0.000135776,-0.000247629,-0.000278798,-0.000217992,-0.000259196,-0.000313583
941,0,-20.5435,15.8296,-1736.11,-178454,69543,36690.5,894.057,928.79,0,70.1761,151.548,-1635.71,-127738,-66478.4,-103971,251.358,904.093,0,-0.000345039,-0.000363271,-0.000234144,-0.000316285,-0.00030062,-0.000238304,-0.000229652,-0.000239723
941,1,-20.3909,16.2874,-1737.63,-176854,70334.9,36587.7,894.477,927.779,0,70.4813,152.006,-1636.62,-127900,-67344.2,-103339,250.852,904.149,0,-0.000179862,-0.000277157,-0.000189324,-0.000200963,-0.000216689,-0.000339525,-0.000229316,-0.000366628
941,2,-20.6961,15.8296,-1737.02,-177152,70164.6,36066.6,894.394,927.986,0,70.3287,151.091,-1637.54,-127330,-67111.3,-104196,251.017,903.757,0,-0.00520989,-0.00533589,-0.00545436,-0.00551552,-0.00535062,-0.00538416,-0.00540488,-0.00542922
941,3,-20.6961,15.8296,-1736.11,-177478,70031.2,35822.4,894.338,928.228,0,69.7183,151.396,-1637.23,-126869,-66660,-104457,251.285,903.49,0,-0.00340485,-0.00432804,-0.00341398,-0.00349898,-0.00338478,-0.00319052,-0.00318674,-0.00436396
941,4,-21.0013,15.8296,-1737.02,-176908,69798.4,36039.4,894.183,927.846,0,70.3287,150.938,-1636.01,-126978,-66441.5,-103543,251.388,903.614,0,-0.00415151,-0.0031446,-0.00328422,-0.00314478,-0.00308447,-0.00312522,-0.0041031,-0.0030459
941,5,-20.3909,15.5244,-1736.11,-178454,69909.2,36985.2,894.268,928.79,0,70.7864,151.548,-1636.62,-126924,-67222.1,-103184,250.926,903.552,0,0.00123254,-0.00161134,-0.000206782,-0.00010142,-0.00107649,-0.00122148,0.0013951,-0.00111211
941,6,-20.8487,15.9822,-1736.11,-178454,69787.1,35973.5,894.198,928.79,0,70.1761,151.243,-1636.93,-127385,-67063.1,-103519,251.031,903.819,0,-0.000411178,0.00173099,-0.00117032,-2.70564e-05,0.000409106,-0.000705635,-0.000942233,0.00188476
941,7,-20.3909,16.5926,-1736.72,-177423,70323.6,36428.7,894.492,928.16,0,70.4813,150.938,-1636.32,-126951,-66770.7,-103285,251.195,903.583,0,0.00034169,5.01768e-05,0.00053786,0.000443297,0.000165537,0.000104306,0.000149719,0.000124876
941,8,-20.5435,15.5244,-1736.41,-176962,69628.1,36483.3,894.099,927.913,0,70.0235,151.701,-1636.62,-126924,-67222.1,-103661,250.926,903.552,0,0.000426797,0.000203436,0.000242924,0.000159776,0.000535676,0.000461184,0.000280149,0.000287704
941,9,-20.5435,15.677,-1735.8,-177993,70068.2,36525.9,894.367,928.542,0,70.7864,151.853,-1635.71,-128714,-66600.5,-103269,251.283,904.69,0,0.000549841,0.000438781,0.000445871,0.000350804,0.000464669,0.000439361,0.000538323,0.000456742
942,0,-20.8487,16.1348,-1735.5,-178753,69738.9,35649.9,894.184,928.998,0,70.1761,151.853,-1635.71,-127493,-66478.4,-103934,251.358,903.944,0,0.000145961,1.14003e-05,0.000564215,0.000357855,0.000247958,0.000252361,0.000416958,0.00035787
942,1,-20.5435,16.7451,-1736.72,-176935,70323.6,36579.7,894.492,927.879,0,70.6339,152.006,-1636.32,-127195,-66648.7,-103325,251.269,903.732,0,0.00431603,0.00435134,0.00409052,0.00499391,0.00546264,0.00464619,0.00447757,0.00438844
942,2,-20.6961,16.5926,-1735.5,-177776,69738.9,36889.8,894.184,928.435,0,70.6339,151.701,-1636.93,-128117,-67429.3,-103240,250.807,904.267,0,0.00390207,0.00388737,0.00385115,0.00406126,0.00492077,0.00416794,0.00379454,0.00373159
942,3,-20.5435,16.5926,-1737.33,-176393,69639.4,36048.9,894.084,927.531,0,70.4813,151.548,-1636.62,-126924,-67100,-103943,251.001,903.552,0,0.00171095,0.00042787,-0.000304311,0.00272859,0.000659727,0.000188741,0.00160661,0.000389261
942,4,-20.2383,16.5926,-1736.41,-177695,69872.2,36320.2,894.24,928.335,0,70.939,151.701,-1637.23,-127602,-67392.4,-103457,250.838,903.937,0,-0.0014239,0.00146174,0.000318463,-0.00115191,0.000722004,-0.000243507,-0.0010965,0.000681008
942,5,-20.2383,16.7451,-1736.11,-176989,70031.2,36973.1,894.338,927.946,0,70.7864,151.548,-1637.23,-127846,-66537.9,-103794,251.36,904.087,0,-0.000291491,-0.000141691,-0.000869171,0.000183612,-0.000396302,-0.000264994,-0.000366629,-0.000283872
942,6,-21.0013,16.2874,-1736.72,-177668,69835.3,35678.9,894.211,928.301,0,70.4813,150.938,-1636.62,-127900,-66978,-103651,251.076,904.149,0,-0.000457172,-0.000322984,-0.000328315,-0.00039921,-0.000238175,-0.000279262,-0.000267589,-0.000304183
942,7,-20.2383,15.9822,-1736.72,-178156,69469.1,36638.2,894,928.582,0,69.8709,151.243,-1637.23,-127602,-67026.2,-104035,251.061,903.937,0,-8.3508e-05,-0.000282696,-0.000387907,2.71635e-05,-0.000109088,-6.40612e-05,-0.000225791,-0.000137495
942,8,-21.0013,15.9822,-1736.41,-177451,70604.7,35837.9,894.661,928.194,0,70.6339,150.633,-1636.93,-127873,-66819,-103674,251.18,904.118,0,-0.000285112,-0.000347492,-0.000498529,-0.000186862,-0.000284337,-0.000356815,-0.000267086,-0.000280514
942,9,-20.8487,15.9822,-1735.8,-178481,70068.2,35729.4,894.367,928.824,0,70.939,150.938,-1636.93,-127873,-66574.8,-103488,251.329,904.118,0,-0.00391533,-0.0036727,-0.00375743,-0.00430355,-0.00414738,-0.00388866,-0.00365826,-0.00357685
943,0,-20.3909,15.9822,-1736.11,-178943,69665,36380.5,894.127,929.071,0,70.0235,150.938,-1637.23,-128090,-66660,-103692,251.285,904.236,0,-0.00307232,-0.00309055,-0.00298945,-0.00306908,-0.00296629,-0.0043899,-0.00322115,-0.00323122
943,1,-20.3909,15.8296,-1736.72,-177668,70445.7,36582,894.563,928.301,0,70.1761,151.091,-1636.93,-127385,-66819,-103477,251.18,903.819,0,-0.00418458,-0.00271235,-0.00313264,-0.00294066,-0.00282092,-0.00264295,-0.00317549,-0.0031357
943,2,-20.5435,15.9822,-1736.72,-176447,69957.4,36733.1,894.281,927.598,0,70.6339,151.548,-1635.71,-127982,-67210.8,-103320,250.91,904.242,0,0.000110206,-0.000828421,-0.00164604,0.000809407,0.000203642,-0.00159766,0.000291228,-0.000634874
943,3,-20.3909,16.7451,-1736.72,-177423,70079.5,36715.4,894.352,928.16,0,70.3287,151.701,-1636.32,-127439,-66892.8,-103878,251.12,903.882,0,0.00141014,-0.00114652,0.000565558,0.000249918,-0.000542679,-0.000600889,0.00196365,-0.000729717
943,4,-20.3909,16.5926,-1735.8,-176772,69579.9,36672.8,894.085,927.839,0,70.1761,151.853,-1636.01,-127466,-66929.7,-103934,251.09,903.913,0,0.000264305,0.000303651,0.000172757,0.000236154,0.000427571,0.000312624,0.000238519,0.000505758
943,5,-20.2383,16.7451,-1736.41,-177451,70116.4,37095.2,894.38,928.194,0,70.6339,151.396,-1636.62,-126924,-66978,-103399,251.076,903.552,0,0.000266823,0.000586165,0.000488005,0.000394113,0.00037973,0.000433654,0.000418804,0.000619905
943,6,-21.0013,16.44,-1736.11,-176745,69909.2,36698,894.268,927.806,0,70.0235,151.853,-1637.23,-125893,-67148.2,-104069,250.987,902.894,0,0.000444926,0.000337223,0.000452586,0.000419796,0.000423207,0.000250515,0.000358374,0.000355185
943,7,-20.5435,16.1348,-1735.8,-178481,69702,36165.3,894.156,928.824,0,70.3287,151.548,-1636.93,-126652,-67063.1,-103713,251.031,903.372,0,0.00549829,0.00551296,0.00548782,0.00540098,0.00546297,0.00523186,0.00553344,0.00551665
943,8,-21.0013,16.44,-1736.41,-177206,70238.5,35843.5,894.45,928.053,0,69.7183,151.548,-1635.71,-127249,-66600.5,-104133,251.283,903.795,0,0.00338069,0.00332016,0.00307176,0.00319424,0.00424395,0.00351328,0.00332603,0.00310999
943,9,-21.459,16.2874,-1737.33,-176637,70127.7,35394,894.365,927.672,0,70.1761,151.701,-1636.32,-127439,-67259,-103769,250.896,903.882,0,0.00261909,0.00419154,0.00340497,0.0032159,0.00318859,0.00298451,0.00268714,0.00410441
944,0,-20.5435,16.44,-1737.02,-176664,70042.5,36616.7,894.323,927.705,0,70.6339,151.091,-1636.93,-126896,-67063.1,-103192,251.031,903.521,0,0.000169462,0.00201552,-0.000921712,0.000344258,0.000594763,-0.000254083,-0.000590391,0.00205917
944,1,-20.5435,15.8296,-1735.5,-178753,69738.9,36080.2,894.184,928.998,0,70.6339,151.396,-1636.01,-127222,-66807.7,-103521,251.164,903.764,0,-0.000551511,-0.00113259,0.00120747,0.000689721,-0.00104493,0.000664466,-0.000209509,-0.000775711
944,2,-20.5435,16.2874,-1736.41,-177939,69872.2,36940.3,894.24,928.475,0,70.1761,150.785,-1636.62,-127168,-66978,-104002,251.076,903.701,0,-0.000274033,-0.000356389,-0.000218532,-0.000482974,-9.07909e-05,-5.28144e-05,-0.000314423,-0.000175432
944,3,-20.5435,15.8296,-1736.41,-177451,69872.2,36446.4,894.24,928.194,0,70.939,150.938,-1636.62,-127168,-67100,-103000,251.001,903.701,0,-0.000235928,-0.000196079,-0.000237165,-0.00016974,-0.000182444,-0.000247368,-0.000412456,-0.000198093
944,4,-20.3909,15.677,-1736.72,-176935,69835.3,36417.4,894.211,927.879,0,69.7183,151.701,-1637.23,-127113,-66904.1,-104420,251.136,903.639,0,-0.000306766,-0.000192218,-0.000436755,-0.000149261,-0.00019772,-0.000283123,-0.000260035,-0.000370321
944,5,-20.3909,15.5244,-1737.33,-177857,70860.1,36985.2,894.787,928.374,0,70.3287,150.785,-1636.93,-127629,-66208.6,-103378,251.553,903.969,0,-0.000278398,-0.000200779,-0.000154912,-0.000181323,-0.000214674,-0.000292188,-0.000227806,-0.000258021
944,6,-20.5435,16.1348,-1736.72,-177668,69957.4,36287.4,894.281,928.301,0,70.3287,151.396,-1637.23,-126625,-66660,-103670,251.285,903.341,0,-0.00461633,-0.00462734,-0.00460162,-0.00462903,-0.0046085,-0.00549747,-0.00472789,-0.00457815
944,7,-20.3909,16.2874,-1737.02,-177885,70164.6,36587.7,894.394,928.408,0,70.4813,151.548,-1638.15,-127032,-67037.5,-103699,251.077,903.546,0,-0.00409276,-0.0040185,-0.0038882,-0.00400374,-0.00418381,-0.0049138,-0.00416269,-0.00398627
944,8,-20.5435,16.2874,-1737.02,-176664,70164.6,36696.2,894.394,927.705,0,70.4813,151.701,-1638.76,-126245,-67451.9,-103864,250.84,903.037,0,-0.000960091,-0.000505619,-0.00169187,-0.0013844,0.00102735,-0.00180481,-0.000831778,-0.000273632
944,9,-21.0013,16.5926,-1736.41,-177695,69750.2,36130.2,894.169,928.335,0,70.1761,151.548,-1636.93,-127385,-67185.2,-103604,250.957,903.819,0,0.000895807,-0.00130801,0.00041062,-0.000133146,-0.00146777,0.000847437,0.000811773,-0.00139479
945,0,-21.0013,16.2874,-1737.02,-177152,70042.5,36167.1,894.323,927.986,0,70.0235,151.396,-1636.93,-127873,-67185.2,-103331,250.957,904.118,0,0.000263801,0.000845178,0.00053551,0.00033939,0.000359587,0.000369362,0.000331012,0.000649114
945,1,-20.2383,16.5926,-1737.02,-176420,69554.3,36686.4,894.042,927.565,0,70.6339,151.548,-1636.93,-126652,-66941,-102953,251.106,903.372,0,0.000394903,0.000487293,0.000504288,0.000484424,0.000383423,0.000527825,0.000526573,0.000381371
945,2,-19.9332,16.1348,-1737.02,-177640,69920.5,37562.4,894.253,928.267,0,70.3287,151.701,-1636.93,-126164,-66574.8,-104000,251.329,903.074,0,0.000234929,0.000161302,0.00020163,0.00030011,2.41956e-05,0.000378427,0.000315568,0.000321444
945,3,-20.3909,16.2874,-1736.11,-178210,69665,36343.5,894.127,928.649,0,70.3287,151.701,-1636.62,-127412,-67466.2,-103633,250.777,903.851,0,0.000419914,0.00037281,0.000371004,0.000326632,0.000376373,0.000261426,0.000419476,0.000212669
945,4,-20.6961,15.9822,-1736.72,-177668,69713.3,36109.2,894.141,928.301,0,69.4131,151.548,-1636.93,-126652,-66696.9,-105015,251.255,903.372,0,0.00336071,0.00495615,0.00388741,0.00378059,0.00354278,0.00363733,0.00314424,0.00470318
945,5,-20.2383,16.7451,-1735.19,-178048,69653.8,36729,894.142,928.61,0,70.1761,151.243,-1636.32,-126951,-66770.7,-103641,251.195,903.583,0,0.00292897,0.0024288,0.00396899,0.00361961,0.00324264,0.00309379,0.00310966,0.00292501
945,6,-20.2383,16.2874,-1736.11,-177966,70031.2,36967.5,894.338,928.509,0,70.3287,151.396,-1636.62,-126924,-67100,-104647,251.001,903.552,0,0.00299477,0.00294599,0.00255105,0.00333626,0.00366381,0.0030582,0.00283402,0.00265726
945,7,-20.8487,16.2874,-1736.41,-177206,70116.4,36180.7,894.38,928.053,0,70.1761,151.091,-1637.23,-127358,-67026.2,-104209,251.061,903.788,0,-0.00111839,0.000156602,0.000518892,-0.000535851,-0.00101203,0.00199478,-0.000428067,-0.000413126
945,8,-20.3909,16.1348,-1737.33,-177613,70127.7,36423,894.365,928.234,0,70.4813,151.548,-1636.93,-127629,-66696.9,-103699,251.255,903.969,0,0.00024584,0.00139963,-0.00124535,0.000214331,0.000123571,-0.000607603,-0.000945926,0.00170078
945,9,-20.2383,15.9822,-1736.41,-178427,69994.3,36882.3,894.31,928.756,0,69.7183,150.938,-1637.84,-126083,-67318.5,-104207,250.898,902.981,0,-0.000397077,-0.000104761,-0.000120164,-0.000190388,-0.000253115,-0.000175858,-0.000267757,-0.000123898
946,0,-20.8487,16.1348,-1737.02,-177396,70164.6,36504.4,894.394,928.127,0,70.3287,151.243,-1636.93,-126652,-66819,-103139,251.18,903.372,0,-0.000158543,-0.000153609,-0.000327812,-0.000318635,-0.000321267,-0.000308974,-9.67043e-05,-0.000210851
946,1,-20.6961,15.8296,-1736.11,-178210,70153.3,36310.7,894.408,928.649,0,70.0235,151.091,-1636.32,-126707,-66648.7,-104223,251.269,903.434,0,-0.000299716,-0.000435956,-0.000128054,-0.000192402,-0.00024724,-0.000249047,-0.000264736,-0.000394829
946,2,-20.0858,15.9822,-1736.11,-178454,69298.8,36407.6,893.916,928.79,0,70.7864,151.548,-1635.1,-128524,-66064,-103184,251.596,904.603,0,-0.00542929,-0.00548797,-0.00547182,-0.00551552,-0.00553796,-0.00549747,-0.0054675,-0.00548428
946,3,-21.7642,15.9822,-1736.11,-177478,70031.2,34793.4,894.338,928.228,0,70.0235,151.548,-1636.93,-128117,-67307.2,-103374,250.882,904.267,0,-0.00330044,-0.00322182,-0.00471022,-0.00336972,-0.00347374,-0.00318498,-0.00301367,-0.00309491
946,4,-20.5435,15.9822,-1737.33,-177369,70249.8,36488.9,894.436,928.093,0,70.7864,151.548,-1636.32,-127439,-66648.7,-103184,251.269,903.882,0,-0.00309565,-0.00330911,-0.0039362,-0.00322872,-0.0031491,-0.00306479,-0.00312026,-0.00302609
946,5,-20.5435,15.677,-1737.02,-177396,69798.4,36403.8,894.183,928.127,0,70.6339,151.701,-1636.93,-127873,-66941,-103484,251.106,904.118,0,-3.71777e-05,-0.000983191,-0.00154398,0.00141053,-0.000773995,-0.000984792,0.000315904,-0.000888012
946,6,-20.3909,16.2874,-1736.11,-177234,70031.2,36709.7,894.338,928.087,0,70.1761,151.853,-1636.93,-127385,-66819,-104056,251.18,903.819,0,-0.000534054,-0.0005731,0.000623974,-0.000441008,-0.0014713,0.00132971,0.00046312,-0.00116767
946,7,-20.6961,16.2874,-1736.11,-177722,69909.2,36316.4,894.268,928.368,0,70.7864,151.853,-1636.93,-127629,-66452.8,-103513,251.404,903.969,0,0.000128504,0.000295929,0.000227817,0.000258479,0.000208342,0.000289795,0.000275449,-9.75052e-06
946,8,-20.6961,16.8977,-1737.02,-177152,70042.5,36486.7,894.323,927.986,0,70.3287,152.006,-1636.93,-127141,-66696.9,-104207,251.255,903.67,0,0.000225193,0.000361899,0.00016705,6.39256e-05,0.000364287,0.000273848,0.000344441,0.00039564
946,9,-21.6116,15.9822,-1736.41,-177451,70116.4,35539.4,894.38,928.194,0,70.0235,151.853,-1636.32,-127927,-66892.8,-103947,251.12,904.18,0,0.0005067,0.0003901,0.000430931,0.000359533,0.00041196,0.000448762,0.000430555,0.000429212
947,0,-20.2383,16.1348,-1734.89,-178563,69690.7,36314.5,894.17,928.925,0,70.4813,151.396,-1636.93,-127141,-66941,-103535,251.106,903.67,0,0.000399771,0.000212669,0.00025031,0.000235314,0.000198941,0.000133178,0.000400507,0.000334873
947,1,-20.3909,16.44,-1735.5,-179241,69738.9,35775.8,894.184,929.279,0,70.4813,152.006,-1637.23,-127602,-66660,-103827,251.285,903.937,0,0.00477564,0.00551296,0.00458606,0.00448058,0.0044333,0.00454446,0.00449805,0.00551665
947,2,-20.5435,16.2874,-1736.72,-177423,70445.7,36940.3,894.563,928.16,0,70.0235,151.853,-1636.93,-127873,-67185.2,-103581,250.957,904.118,0,0.00416679,0.00404398,0.00380482,0.003932,0.00342947,0.00515767,0.00401327,0.0040047
947,3,-20.2383,15.9822,-1735.5,-179485,69738.9,36272,894.184,929.42,0,70.0235,151.243,-1635.71,-129202,-66478.4,-104754,251.358,904.989,0,-0.000311131,0.00160543,0.000748025,-0.000765488,0.00261953,0.00101429,-4.61774e-05,0.0016014
947,4,-20.8487,16.44,-1736.11,-178210,70031.2,35979.2,894.338,928.649,0,70.4813,150.938,-1637.23,-127358,-67148.2,-103529,250.987,903.788,0,-0.000862562,-0.000274471,0.0018529,-0.00108678,0.000115178,0.000358115,-0.00056689,-0.000809116
947,5,-20.8487,15.677,-1736.72,-177179,69957.4,35766.3,894.281,928.02,0,70.4813,151.243,-1636.93,-127873,-66819,-103614,251.18,904.118,0,5.0447e-05,-0.00025567,-0.000213161,-0.000255015,-0.000222732,-0.000966999,7.502e-05,-0.000267589
947,6,-20.5435,16.44,-1736.41,-177695,69872.2,36494.6,894.24,928.335,0,70.7864,151.701,-1637.23,-127846,-67148.2,-103349,250.987,904.087,0,-0.000300723,-0.00030989,-0.000258988,-0.000402735,-0.000346783,-0.000450651,-1.93193e-05,-0.000273464
947,7,-20.3909,16.2874,-1736.72,-178888,69957.4,36221.5,894.281,929.004,0,69.8709,151.091,-1636.93,-128117,-67063.1,-103992,251.031,904.267,0,-0.000330267,-0.000207829,-0.000158437,-0.000255854,-0.000178416,-0.000292523,-0.000377708,-7.13564e-05
947,8,-21.1539,16.2874,-1735.5,-178020,70471.3,35787.4,894.606,928.576,0,70.4813,151.701,-1636.93,-125920,-66696.9,-103620,251.255,902.925,0,-0.000322042,-0.000595594,-0.000164984,-0.000249475,-0.000385559,-0.000261804,-0.000389458,-0.000439985
947,9,-20.8487,15.5244,-1737.02,-177640,70164.6,35479.6,894.394,928.267,0,70.1761,151.243,-1637.23,-126869,-67270.3,-104130,250.912,903.49,0,-0.00377315,-0.0036262,-0.00373359,-0.00419813,-0.004094,-0.00373507,-0.00362016,-0.00357769
948,0,-21.0013,15.8296,-1736.41,-176474,70116.4,35795.3,894.38,927.631,0,70.939,151.853,-1636.32,-127683,-66648.7,-103133,251.269,904.031,0,-0.00313157,-0.00315803,-0.00306835,-0.00307747,-0.00318032,-0.00395363,-0.00329719,-0.0032193
948,1,-20.3909,15.8296,-1736.11,-177966,70275.4,36704.1,894.479,928.509,0,69.5657,151.548,-1637.84,-125350,-67318.5,-103659,250.898,902.534,0,-0.00382132,-0.00278672,-0.00298744,-0.00276776,-0.00283553,-0.00262935,-0.00308148,-0.00301854
948,2,-20.3909,16.5926,-1737.02,-176664,70042.5,36672.8,894.323,927.705,0,70.4813,152.159,-1636.93,-126652,-67063.1,-103137,251.031,903.372,0,-0.000815561,-0.00182402,0.00110574,-0.000244104,-0.00146358,0.000288956,-0.000601134,-0.00136172
948,3,-20.3909,16.1348,-1735.5,-178264,69494.8,36178.9,894.043,928.717,0,70.3287,151.396,-1636.93,-127873,-67185.2,-103792,250.957,904.118,0,0.000691853,-0.000150084,-0.000980465,0.000663534,0.00141092,-0.0011681,0.000588011,0.000299958
948,4,-20.5435,16.1348,-1736.41,-177451,70238.5,36409.4,894.45,928.194,0,70.4813,151.548,-1636.62,-126924,-66978,-103943,251.076,903.552,0,0.000300899,0.000344777,0.000279686,0.000625933,0.000460808,0.000393367,0.000454727,0.000367439
948,5,-21.459,15.9822,-1735.8,-177505,69824,35919.2,894.226,928.261,0,70.3287,151.091,-1636.01,-127466,-67051.8,-103585,251.015,903.913,0,0.000397757,0.000316912,0.000390308,0.00031421,0.000361601,0.000376748,0.000350484,0.000344945
948,6,-20.6961,15.9822,-1736.41,-178183,70116.4,36475.4,894.38,928.616,0,70.7864,151.396,-1636.93,-127385,-67185.2,-103263,250.957,903.819,0,0.000370898,0.000309694,0.00035875,0.000371787,0.000362944,0.000363823,0.000459931,0.000391947
948,7,-20.6961,15.9822,-1736.41,-177695,69750.2,36475.4,894.169,928.335,0,70.7864,151.243,-1636.32,-127927,-67014.9,-103465,251.045,904.18,0,0.00549829,0.00551296,0.00546079,0.00539426,0.00537216,0.00512796,0.00553344,0.00551665
948,8,-20.5435,16.2874,-1736.11,-178698,69909.2,36574.1,894.268,928.931,0,70.6339,151.091,-1637.23,-126869,-67148.2,-103314,250.987,903.49,0,0.00422018,0.00344807,0.00327168,0.00309369,0.00304792,0.00287154,0.00409871,0.00324529
948,9,-20.6961,16.1348,-1736.11,-176989,70275.4,36395.9,894.479,927.946,0,70.4813,151.243,-1637.84,-127303,-66830.2,-103614,251.196,903.726,0,0.00360126,0.00339116,0.00309291,0.00308731,0.00271102,0.00363078,0.00414907,0.00337186
949,0,-20.8487,16.2874,-1736.11,-177722,69787.1,36546.9,894.198,928.368,0,70.1761,151.091,-1637.23,-126381,-66904.1,-103721,251.136,903.192,0,0.00210862,-0.000505283,0.000107626,0.000755691,-0.000153236,-0.00116508,0.00184296,0.00041998
949,1,-20.8487,15.9822,-1735.8,-178237,69824,36461.8,894.226,928.683,0,69.7183,151.396,-1637.23,-126625,-66904.1,-103725,251.136,903.341,0,0.000271523,-0.000424877,-0.0010315,0.00173198,-0.000366087,-0.000434872,0.000702997,-0.000441663
949,2,-20.5435,16.2874,-1736.72,-176935,69835.3,36574.1,894.211,927.879,0,70.4813,151.548,-1636.62,-127656,-66611.8,-103211,251.299,904,0,-0.000284608,-0.000286725,-0.000195535,-0.000196934,-0.000235321,-0.000171494,-0.000193394,-0.000219412
949,3,-20.5435,16.2874,-1736.41,-177939,69872.2,36452,894.24,928.475,0,70.0235,151.396,-1637.23,-126381,-67148.2,-103820,250.987,903.192,0,-0.000151661,-0.000227302,-0.000106567,-0.000203481,-0.000179423,-0.000271373,-0.000182818,-0.000320969
949,4,-20.6961,16.2874,-1736.41,-177451,69872.2,36194.3,894.24,928.194,0,70.1761,151.396,-1636.93,-126652,-67185.2,-103684,250.957,903.372,0,-0.000230389,-0.000272457,-0.000475196,-0.000260722,-0.000302802,-0.000264826,-0.000280011,-0.000328859
949,5,-20.3909,16.1348,-1736.41,-177939,70116.4,36056.8,894.38,928.475,0,70.4813,151.396,-1636.62,-128144,-67222.1,-103168,250.926,904.298,0,-0.000127992,-0.000221258,-0.000459416,-9.65518e-05,-0.000183955,-0.000127178,-0.000198094,-0.000207326
949,6,-20.6961,16.2874,-1737.02,-176176,70164.6,35950.2,894.394,927.424,0,70.6339,151.853,-1636.32,-128416,-67014.9,-103527,251.045,904.478,0,-0.00450604,-0.0044907,-0.00547182,-0.00467536,-0.00451752,-0.00458446,-0.0045884,-0.00452343
949,7,-20.3909,16.44,-1738.85,-176013,70919.6,36508.2,894.785,927.223,0,69.8709,151.396,-1637.54,-125866,-66867.2,-104321,251.166,902.863,0,-0.00398046,-0.00380582,-0.00395433,-0.00398377,-0.00528868,-0.00409027,-0.00388387,-0.0036967
949,8,-21.0013,16.7451,-1735.5,-178997,69616.8,35806.6,894.114,929.139,0,70.0235,151.396,-1636.32,-127195,-67381.1,-104430,250.822,903.732,0,0.00110463,-0.00149249,-0.00132274,-0.00016034,-0.00168012,-0.00137759,0.00117201,-0.00178793
949,9,-20.5435,15.9822,-1737.02,-177396,70164.6,36000.7,894.394,928.127,0,70.3287,150.938,-1636.32,-127195,-66648.7,-103543,251.269,903.732,0,-0.00155533,0.00162608,-0.000131243,-0.000884167,0.00062884,-0.000430004,-0.00134024,0.00108438
950,0,-20.6961,16.44,-1736.11,-177234,70153.3,36236.9,894.408,928.087,0,70.1761,151.396,-1636.62,-128144,-66978,-103806,251.076,904.298,0,2.84569e-05,0.000616212,0.000676683,0.000461594,0.00041901,0.000387827,0.000314058,0.000513648
950,1,-20.8487,15.8296,-1735.8,-177505,69946.1,35808.9,894.296,928.261,0,70.1761,151.243,-1636.32,-128416,-66526.6,-103885,251.344,904.478,0,0.000438212,0.000232309,0.000643111,0.000455048,0.000576299,0.000352072,0.000478396,0.000195211
950,2,-20.6961,15.9822,-1737.33,-176881,70249.8,36231.2,894.436,927.812,0,69.8709,150.938,-1636.32,-128904,-67014.9,-103828,251.045,904.777,0,0.000240468,0.000242884,0.000190551,0.00020812,0.000273473,0.000149293,0.000279981,0.000180439
950,3,-20.5435,16.2874,-1736.72,-177423,70811.9,36330,894.773,928.16,0,69.8709,151.701,-1637.23,-127846,-66904.1,-104040,251.136,904.087,0,0.000463559,0.000313387,0.000292612,0.000388406,0.000296302,0.000332432,0.000397821,0.000352835
950,4,-20.8487,16.2874,-1736.72,-177179,70079.5,36913.1,894.352,928.02,0,70.4813,151.396,-1636.93,-126896,-67063.1,-104267,251.031,903.521,0,0.00345606,0.00403274,0.00475711,0.0038234,0.00370645,0.00362742,0.00356255,0.00355886
950,5,-20.3909,16.2874,-1735.19,-178780,69409.6,35977.3,894.001,929.032,0,70.939,151.701,-1636.32,-128416,-66404.5,-102725,251.418,904.478,0,0.00299679,0.00259364,0.00367204,0.00405857,0.00332708,0.00322825,0.00304771,0.00318419
950,6,-20.3909,16.7451,-1737.02,-176664,70042.5,36715.4,894.323,927.705,0,70.0235,151.091,-1636.01,-128199,-66929.7,-103612,251.09,904.36,0,0.00296187,0.0027187,0.0027451,0.00384186,0.00287233,0.00284216,0.00268983,0.00261563
950,7,-20.5435,15.3719,-1737.02,-177152,70530.8,36318.7,894.604,927.986,0,70.4813,151.853,-1636.93,-126652,-67185.2,-103662,250.957,903.372,0,0.000505525,-0.000459121,-0.00112768,0.00175431,-0.000191509,-0.000695396,0.000748992,-0.0003673
950,8,-20.5435,15.9822,-1737.02,-176908,69798.4,36366.9,894.183,927.846,0,70.1761,152.006,-1636.01,-127710,-66441.5,-103488,251.388,904.062,0,0.000632597,-0.000216558,-0.00120188,0.000613175,0.0012261,-0.00121745,0.000490314,-0.000102075
950,9,-20.3909,16.44,-1736.72,-176935,70079.5,36874.4,894.352,927.879,0,70.3287,152.006,-1636.62,-126924,-66367.6,-103596,251.448,903.552,0,-0.00010382,-0.000174089,-0.000273927,-0.000208181,-0.00027628,-0.000298399,-0.000356557,-0.000339938
951,0,-20.5435,16.1348,-1736.72,-177179,70201.5,36531.5,894.422,928.02,0,70.1761,151.243,-1637.23,-126869,-67026.2,-103641,251.061,903.49,0,-0.000256911,-0.000202122,-0.000315725,-0.000241418,-0.000201749,-0.000444943,-0.000132795,-0.000190539
951,1,-20.2383,16.44,-1737.33,-176881,70493.9,36888,894.576,927.812,0,69.7183,151.091,-1637.54,-126842,-66989.2,-104006,251.092,903.459,0,-0.0003395,-0.000179628,-0.000366756,-0.000193409,-0.000194531,-0.000189119,-0.000261378,-0.000238045
951,2,-20.2383,16.44,-1736.41,-178427,69750.2,36399.7,894.169,928.756,0,70.1761,151.548,-1636.62,-126435,-66489.7,-103360,251.374,903.254,0,-0.00537087,-0.00547287,-0.00547182,-0.00533255,-0.00550036,-0.00549747,-0.0054675,-0.00548428
951,3,-20.5435,15.9822,-1736.41,-176474,69872.2,36488.9,894.24,927.631,0,70.6339,151.396,-1636.32,-126951,-66648.7,-103521,251.269,903.583,0,-0.00324035,-0.00335493,-0.00356623,-0.00386374,-0.00329933,-0.00325112,-0.00315652,-0.00298496
951,4,-20.0858,16.1348,-1736.41,-177939,70482.6,37060.5,894.591,928.475,0,70.3287,151.396,-1637.23,-127113,-66904.1,-103548,251.136,903.639,0,-0.00311814,-0.00307359,-0.00312408,-0.00329334,-0.00402148,-0.00328654,-0.00311942,-0.0030882
951,5,-19.7806,15.5244,-1735.8,-177993,70312.3,37039.5,894.507,928.542,0,70.1761,150.785,-1637.54,-127086,-67111.3,-103147,251.017,903.608,0,0.00133846,-0.00100803,-0.000716919,0.000177401,-0.000875049,-0.00170241,0.00123932,-0.000317444
951,6,-20.6961,15.9822,-1737.02,-177152,70530.8,36109.2,894.604,927.986,0,70.7864,151.548,-1636.32,-127683,-67137,-103550,250.971,904.031,0,0.000393728,-0.000642092,-0.00119013,0.00157671,-0.000146857,-0.000651415,0.000679832,-0.000515187
951,7,-20.5435,16.2874,-1737.02,-177396,70775,36330,894.745,928.127,0,70.3287,151.396,-1636.62,-127168,-67344.2,-103914,250.852,903.701,0,0.000383488,0.000266217,0.000295633,0.000185962,-0.000103381,0.000405285,0.000392786,7.65313e-05
951,8,-20.3909,15.9822,-1736.72,-176691,69957.4,36258.4,894.281,927.739,0,70.7864,151.701,-1636.32,-127439,-66892.8,-103349,251.12,903.882,0,0.000534901,0.000370796,0.000207169,0.000277784,0.000299156,0.000220971,0.000438948,0.000381371
951,9,-20.5435,16.1348,-1736.41,-176718,69750.2,36409.4,894.169,927.772,0,70.3287,151.853,-1636.62,-127168,-67100,-104164,251.001,903.701,0,0.00028277,0.000450867,0.000320309,0.000450179,0.000406756,0.000339483,0.000277128,0.000519355
952,0,-20.8487,15.9822,-1736.72,-177668,70323.6,36339.7,894.492,928.301,0,70.4813,151.243,-1636.32,-127927,-66526.6,-103004,251.344,904.18,0,0.000304257,0.000116315,0.000243931,0.000156083,0.000269108,0.000153658,0.000656499,0.000255138
952,1,-20.5435,16.2874,-1737.33,-177125,70249.8,36207.9,894.436,927.953,0,70.1761,151.396,-1637.23,-127358,-67148.2,-103806,250.987,903.788,0,0.00425375,0.0048128,0.00552911,0.00464173,0.00446066,0.0045406,0.00420832,0.00514366
952,2,-20.8487,16.1348,-1735.19,-178536,69531.7,35894,894.072,928.891,0,70.1761,151.701,-1637.54,-127330,-66745.1,-104013,251.241,903.757,0,0.0038116,0.00379991,0.00363561,0.00401308,0.00505406,0.00402056,0.00381183,0.00375711
952,3,-21.0013,16.44,-1736.72,-176447,69713.3,36087.6,894.141,927.598,0,70.1761,151.091,-1636.01,-127710,-66929.7,-103843,251.09,904.062,0,0.00270118,0.000463289,0.000202973,0.00151242,0.000340282,-0.000496478,0.00238566,0.000967718
952,4,-20.8487,16.1348,-1737.02,-177396,70286.7,36138.1,894.464,928.127,0,70.6339,151.701,-1636.01,-127222,-67051.8,-103362,251.015,903.764,0,0.00140712,0.000364417,-0.00100715,0.000680992,-0.000239014,-0.000944001,0.000558299,0.00145016
952,5,-20.8487,16.2874,-1736.11,-178454,69787.1,35814.5,894.198,928.79,0,70.3287,152.006,-1636.32,-127195,-66648.7,-103963,251.269,903.732,0,-0.000173483,-0.00107988,9.25186e-05,-0.000228996,-0.000309685,-0.000255761,-0.000264232,-0.000960865
952,6,-20.5435,15.5244,-1735.8,-177505,69946.1,36483.3,894.296,928.261,0,70.7864,151.701,-1636.32,-126951,-67014.9,-103226,251.045,903.583,0,-0.000304249,-0.000300154,-0.000436251,-9.20195e-05,-0.000123356,-0.000348086,-0.000336581,-0.000312073
952,7,-21.0013,16.44,-1735.8,-177505,69946.1,35721.4,894.296,928.261,0,70.1761,151.396,-1637.23,-126625,-66782,-103318,251.21,903.341,0,-0.000193291,-6.0781e-05,-0.000128725,-0.000189884,-0.000195538,-0.000197009,-9.82151e-05,-0.000113154
952,8,-20.3909,16.1348,-1736.41,-177206,70604.7,36667.2,894.661,928.053,0,70.4813,151.396,-1636.93,-126896,-67063.1,-103413,251.031,903.521,0,-0.000375926,-0.00020934,-0.000159109,-0.000351536,-0.000285345,-0.000286984,-0.00030603,-0.000355381
952,9,-20.6961,15.9822,-1736.41,-177451,70238.5,35987.1,894.45,928.194,0,70.1761,151.701,-1636.93,-127141,-67307.2,-103891,250.882,903.67,0,-0.00377197,-0.00380481,-0.00501993,-0.00381221,-0.00385194,-0.00366356,-0.00362687,-0.00372877
953,0,-21.0013,15.9822,-1735.5,-178264,69738.9,36204.1,894.184,928.717,0,70.4813,151.243,-1636.32,-127439,-67014.9,-103248,251.045,903.882,0,-0.0030797,-0.003013,-0.00318183,-0.00433863,-0.00336799,-0.00314385,-0.00312228,-0.00322098
953,1,-21.0013,16.44,-1736.11,-177234,70397.5,36087.6,894.549,928.087,0,70.1761,151.243,-1636.01,-127710,-67418,-103519,250.791,904.062,0,-0.00297026,-0.00278017,-0.00302941,-0.0035297,-0.00245095,-0.00290834,-0.002686,-0.00250672
953,2,-20.3909,15.5244,-1736.41,-176230,69994.3,36496.9,894.31,927.491,0,70.4813,151.396,-1635.4,-128497,-66393.2,-104023,251.402,904.572,0,-0.000664651,-0.00181546,0.000791502,0.0004297,-0.00153039,0.000249172,-0.000538185,-0.00163635
953,3,-20.6961,16.1348,-1736.41,-177206,69994.3,36517.9,894.31,928.053,0,70.4813,151.396,-1636.32,-127439,-66404.5,-103657,251.418,903.882,0,-0.00109707,0.000639881,0.000266593,-0.00106596,0.00065318,0.00161105,-0.00117623,0.000588011
953,4,-20.5435,16.44,-1735.5,-178509,69861,36494.6,894.254,928.857,0,70.0235,151.243,-1636.32,-127683,-66770.7,-103899,251.195,904.031,0,0.000362673,0.000322283,0.000334913,0.000401835,0.000178126,0.00057852,0.00057945,0.000498037
953,5,-21.459,16.5926,-1735.5,-178020,69616.8,35479.1,894.114,928.576,0,70.6339,151.548,-1636.93,-127629,-67185.2,-103442,250.957,903.969,0,0.00034958,0.000394968,0.000394001,0.000526054,0.000474238,0.00037742,0.000397821,0.000446838
953,6,-20.8487,16.1348,-1737.02,-177152,70164.6,36260.2,894.394,927.986,0,70.1761,151.396,-1637.54,-126110,-67965.8,-103684,250.495,903.012,0,0.000370563,0.000319094,0.000395009,0.0003221,0.000321985,0.000351737,0.00037046,0.000307008
953,7,-20.5435,15.9822,-1736.11,-177478,70153.3,36122.7,894.408,928.228,0,70.1761,151.243,-1636.32,-127195,-66892.8,-103519,251.12,903.732,0,0.00549829,0.00551296,0.00552911,0.00517067,0.00546297,0.00550347,0.00553344,0.00551665
953,8,-20.8487,16.2874,-1736.72,-177668,69469.1,36669,894,928.301,0,70.1761,151.243,-1636.62,-127656,-66733.8,-103641,251.225,904,0,0.00371894,0.00331663,0.0032638,0.0030942,0.00280015,0.00383306,0.00381569,0.00329917
953,9,-20.6961,16.44,-1736.72,-176447,70445.7,36358.9,894.563,927.598,0,70.4813,151.243,-1636.01,-127222,-67173.9,-103980,250.941,903.764,0,0.00376275,0.00410307,0.00341017,0.00313918,0.00313554,0.00301439,0.00331529,0.00429343
954,0,-20.2383,15.9822,-1736.72,-176691,70567.8,36760.2,894.633,927.739,0,70.1761,151.243,-1636.62,-127168,-66733.8,-103763,251.225,903.701,0,-0.000349907,-0.000715784,0.00208942,-0.000316957,-0.000138464,0.000894271,-0.000100733,-0.0011529
954,1,-19.7806,16.2874,-1735.5,-177776,69494.8,37496.5,894.043,928.435,0,70.1761,151.853,-1636.01,-127466,-67051.8,-103323,251.015,903.913,0,-0.000907718,0.000586333,-0.000218532,-0.000993614,0.000739797,0.00114103,-0.00116566,0.000603287
954,2,-20.5435,16.2874,-1736.72,-177179,69957.4,36330,894.281,928.02,0,70.0235,151.548,-1636.93,-127385,-67185.2,-103496,250.957,903.819,0,-0.000184898,-0.000366964,-0.000263856,-0.000196431,-0.00023935,-0.000418589,-5.32277e-05,-0.000181643
954,3,-20.3909,16.1348,-1736.41,-177206,69261.9,36667.2,893.888,928.053,0,70.1761,151.396,-1636.62,-127900,-66855.9,-103928,251.15,904.149,0,1.46921e-05,-0.000106943,-0.000212993,-0.000320817,-0.000238511,-0.000283627,-0.00012608,-0.000227302
954,4,-20.5435,15.5244,-1737.02,-177640,69798.4,36117.1,894.183,928.267,0,70.4813,151.548,-1636.93,-126896,-66452.8,-104188,251.404,903.521,0,-0.000261611,-0.000330705,-0.000306996,-0.000256694,-0.000240357,-0.000293363,-0.000218237,-0.000289579
954,5,-20.2383,16.5926,-1736.11,-178454,69787.1,36564.3,894.198,928.79,0,70.1761,150.633,-1637.84,-127059,-66952.3,-103959,251.122,903.577,0,-0.000389859,-0.000220587,-0.00027527,-0.000259379,-0.000297934,-0.000273387,-0.000356221,-0.000250802
954,6,-20.3909,15.9822,-1736.72,-177668,70201.5,36014.2,894.422,928.301,0,70.3287,151.548,-1637.54,-126842,-66989.2,-103347,251.092,903.459,0,-0.0045193,-0.00450178,-0.00457157,-0.0046569,-0.00553796,-0.00460695,-0.00459158,-0.00456808
954,7,-20.0858,15.9822,-1735.8,-177993,69457.8,36651.8,894.015,928.542,0,70.0235,151.548,-1636.32,-128904,-66404.5,-103984,251.418,904.777,0,-0.00391247,-0.00531457,-0.00393839,-0.00401465,-0.00379587,-0.0040243,-0.00382629,-0.00512153
954,8,-20.2383,16.1348,-1736.72,-177423,70445.7,36314.5,894.563,928.16,0,70.6339,151.701,-1638.15,-126055,-67403.7,-103728,250.854,902.95,0,-0.00190097,-0.000759429,0.000765987,-0.00200432,-0.000614525,-0.000622711,-0.00154251,-0.00112436
954,9,-20.2383,16.44,-1737.63,-176610,69724.5,37132.1,894.126,927.638,0,70.7864,151.396,-1636.62,-127900,-67222.1,-103019,250.926,904.149,0,-0.00032691,-0.00111261,0.000436807,0.001383,-0.00137696,0.00027133,-2.93911e-05,-0.000679022
955,0,-20.8487,16.1348,-1736.11,-177966,70031.2,35894,894.338,928.509,0,70.4813,151.243,-1636.93,-127141,-66696.9,-103492,251.255,903.67,0,0.000500153,0.000427534,0.000342635,0.000410732,7.70725e-05,0.000676217,0.000456742,0.000554606
955,1,-20.8487,16.2874,-1735.8,-177993,70068.2,36058.7,894.367,928.542,0,70.3287,151.701,-1637.23,-127113,-66904.1,-103755,251.136,903.639,0,0.000288142,0.000489979,0.000552465,0.000363226,0.000472727,0.000388331,0.000258998,0.000622927
955,2,-20.6961,15.9822,-1736.41,-177206,70116.4,35987.1,894.38,928.053,0,69.8709,151.548,-1636.93,-127385,-66696.9,-104120,251.255,903.819,0,0.000320875,0.000219383,0.000240574,0.000295913,0.000273809,0.000319507,0.000289046,0.000217537
955,3,-20.5435,15.9822,-1737.02,-176908,69798.4,36122.7,894.183,927.846,0,70.6339,151.853,-1636.32,-127927,-67014.9,-103405,251.045,904.18,0,0.000253394,0.000376168,0.000358079,0.000342915,8.513e-05,0.000524132,0.000460602,0.000386239
955,4,-20.2383,16.5926,-1736.41,-176962,69750.2,36076,894.169,927.913,0,70.6339,151.243,-1636.62,-125459,-67100,-102990,251.001,902.657,0,0.00492,0.00387662,0.00379156,0.00363724,0.00355101,0.00317436,0.00468505,0.00386941
955,5,-20.2383,16.1348,-1738.24,-175334,70383.1,37291.1,894.491,926.869,0,70.7864,151.396,-1635.71,-127005,-66600.5,-102897,251.283,903.645,0,0.00414984,0.00327416,0.00309509,0.00308261,0.00310718,0.00303302,0.00436494,0.00339486
955,6,-21.3065,15.9822,-1735.8,-177749,69946.1,35810.7,894.296,928.402,0,70.1761,151.701,-1635.71,-127249,-66966.7,-103769,251.06,903.795,0,0.00303909,0.00293189,0.00279227,0.00227116,0.00369285,0.00264945,0.00284527,0.00264786
955,7,-20.8487,15.8296,-1735.8,-176284,70190.2,36175.1,894.437,927.558,0,70.1761,151.548,-1637.54,-125866,-67355.5,-104093,250.868,902.863,0,0.00199112,-0.000998802,-1.40747e-05,0.000511282,-0.000749487,-0.000392234,0.00186629,-0.00100166
955,8,-20.5435,15.9822,-1736.11,-176989,69787.1,36244.8,894.198,927.946,0,70.3287,151.243,-1637.23,-126869,-67514.5,-103628,250.763,903.49,0,-0.000649208,0.00185152,-0.000944038,-0.000475252,0.000440329,-0.000631272,-0.00112604,0.00179176
955,9,-20.0858,16.1348,-1735.5,-178264,69861,37182.6,894.254,928.717,0,70.3287,151.091,-1635.71,-127982,-66478.4,-103829,251.358,904.242,0,-0.000303745,-0.000251977,-0.000150883,-0.00040391,2.46991e-05,-0.000202884,-0.00031862,-0.000274807
956,0,-21.3065,16.44,-1735.8,-177993,69824,35450.1,894.226,928.542,0,70.0235,151.853,-1636.62,-127168,-67222.1,-104436,250.926,903.701,0,-0.000237942,-0.000245934,-0.00029961,-0.000222617,-0.0003352,-0.000211445,-0.000273632,-0.000308212
956,1,-20.3909,16.2874,-1737.02,-177396,70042.5,36343.5,894.323,928.127,0,70.6339,152.464,-1635.71,-128714,-66478.4,-103819,251.358,904.69,0,-0.000202355,-0.000170228,-0.00025647,-0.000173769,-0.000382706,1.21488e-05,-0.000152435,-0.000192386
956,2,-20.5435,16.1348,-1738.24,-176555,70505.2,36287.4,894.561,927.571,0,70.3287,151.396,-1635.71,-128714,-66234.2,-104159,251.507,904.69,0,-0.00550264,-0.00529711,-0.00547182,-0.00551552,-0.00547216,-0.00549747,-0.0054675,-0.00548428
956,3,-20.5435,15.9822,-1737.02,-177152,70164.6,36611,894.394,927.986,0,69.8709,151.853,-1636.32,-127683,-66648.7,-104327,251.269,904.031,0,-0.00314467,-0.00423336,-0.00325518,-0.00328864,-0.00314053,-0.0031039,-0.00299655,-0.0031446
956,4,-20.2383,16.44,-1736.72,-176935,69591.2,36643.8,894.071,927.879,0,70.4813,150.633,-1636.62,-127168,-66978,-103444,251.076,903.701,0,-0.00306342,-0.00306873,-0.00318737,-0.00407223,-0.00321288,-0.00322929,-0.00310985,-0.00310381
956,5,-20.5435,16.2874,-1736.11,-177478,70031.2,36696.2,894.338,928.228,0,70.1761,151.396,-1635.71,-127249,-66722.5,-103196,251.209,903.795,0,-0.000467412,-0.00111513,0.000210023,-0.000909682,-0.00150185,0.000489049,0.000590864,-0.00151045
956,6,-20.5435,16.5926,-1735.5,-178753,69983,36537.2,894.325,928.998,0,70.4813,151.548,-1636.32,-128171,-66770.7,-103455,251.195,904.329,0,-0.00123589,0.00181543,-0.000338891,-0.000497746,0.000558505,-0.000471802,-0.00131623,0.00164169
956,7,-20.5435,15.9822,-1737.33,-177125,70005.6,36244.8,894.295,927.953,0,70.3287,152.006,-1636.32,-127195,-67259,-103841,250.896,903.732,0,0.000166441,-4.80234e-05,0.000278343,0.000202077,0.000214049,0.000178837,0.000153244,-9.90539e-05
956,8,-20.8487,16.2874,-1737.33,-176148,70249.8,36058.7,894.436,927.39,0,70.0235,151.853,-1636.62,-126924,-66489.7,-103947,251.374,903.552,0,0.000334472,0.000464967,0.000358079,0.000288695,0.000228485,0.000414014,0.000338733,0.000314226
956,9,-20.8487,15.8296,-1736.11,-178454,69909.2,35930.9,894.268,928.79,0,70.6339,151.396,-1636.32,-127683,-67014.9,-103399,251.045,904.031,0,0.000377949,0.0003854,0.000414481,0.000254115,0.000493038,0.000402431,0.000429548,0.00039564
957,0,-20.3909,17.0503,-1735.5,-177776,70349.2,37044.7,894.536,928.435,0,70.3287,152.159,-1636.93,-127141,-66941,-103639,251.106,903.67,0,-3.54991e-05,0.000465975,0.000401555,0.000299606,0.0003193,0.00028627,9.48279e-05,0.00093616
957,1,-21.1539,16.5926,-1736.11,-177478,69665,36238.7,894.127,928.228,0,70.1761,151.701,-1637.23,-127113,-67270.3,-103525,250.912,903.639,0,0.00433583,0.00451921,0.00406299,0.00508724,0.00546297,0.00468731,0.00448076,0.00445189
957,2,-20.3909,16.44,-1736.72,-176691,70323.6,36874.4,894.492,927.739,0,70.1761,151.548,-1636.01,-126978,-66685.6,-103726,251.239,903.614,0,0.00386615,0.0035085,0.00461426,0.00476511,0.00401162,0.00370817,0.00391557,0.00371111
957,3,-20.3909,16.7451,-1737.33,-177613,70127.7,36471.2,894.365,928.234,0,70.3287,151.243,-1635.71,-128470,-66844.6,-103750,251.134,904.541,0,0.000352098,-0.00050008,0.00239393,0.000960988,-5.01269e-06,0.0014917,0.000471178,-0.000551278
957,4,-20.5435,16.1348,-1736.41,-177695,69628.1,36531.5,894.099,928.335,0,70.3287,151.548,-1636.93,-126652,-66819,-103103,251.18,903.372,0,0.000338333,0.000133437,-0.000476203,-0.00078966,0.00181496,-0.000645037,-0.000368643,0.000513816
957,5,-20.3909,16.44,-1737.02,-176908,70408.8,36386.1,894.534,927.846,0,70.0235,151.396,-1636.01,-128687,-66807.7,-104064,251.164,904.659,0,-0.000214274,-0.000242241,-0.000214336,-0.000233864,-0.000391267,-0.000162429,-0.00071931,-0.000161499
957,6,-20.3909,16.2874,-1735.5,-178753,69616.8,36221.5,894.114,928.998,0,70.3287,151.548,-1637.23,-127113,-67148.2,-103591,250.987,903.639,0,-0.000258422,-0.00040809,-0.000534116,-0.000164201,-0.000196545,-0.000267176,-0.000177111,-0.000264567
957,7,-20.5435,16.5926,-1735.8,-178481,69457.8,35926.8,894.015,928.824,0,70.6339,151.548,-1635.71,-127982,-66600.5,-103564,251.283,904.242,0,-0.000267319,-0.000111979,-0.000198557,-0.000162858,-0.000241868,2.0542e-05,-8.39467e-05,-0.000145384
957,8,-20.8487,16.2874,-1736.72,-177668,70079.5,36424.9,894.352,928.301,0,70.0235,152.159,-1636.32,-127683,-66648.7,-103666,251.269,904.031,0,-0.000387173,-0.000341617,-0.00018647,-0.00036228,-0.000326639,-0.000452665,-0.000210684,-0.000244424
957,9,-20.3909,15.8296,-1736.41,-177206,70116.4,36460,894.38,928.053,0,69.8709,151.701,-1636.93,-127385,-66819,-103918,251.18,903.819,0,-0.00464369,-0.00393759,-0.00377573,-0.0035814,-0.00374367,-0.00361941,-0.00498976,-0.00381924
958,0,-20.5435,16.1348,-1735.19,-177803,69531.7,36287.4,894.072,928.469,0,69.5657,151.396,-1636.62,-126924,-66733.8,-103982,251.225,903.552,0,-0.00314819,-0.00332858,-0.00313869,-0.00328864,-0.00322228,-0.00451295,-0.00329585,-0.00333227
958,1,-20.5435,15.8296,-1737.33,-175904,70127.7,36446.4,894.365,927.25,0,70.1761,151.548,-1638.15,-125811,-67281.6,-103360,250.928,902.801,0,-0.00282472,-0.00392651,-0.00233059,-0.00291297,-0.00279558,-0.00270724,-0.00237646,-0.00354546
958,2,-20.5435,15.8296,-1736.41,-177451,69506,36812.6,894.029,928.194,0,70.1761,151.243,-1637.54,-126842,-66623,-103641,251.315,903.459,0,-0.000844097,0.00019605,-0.000984829,-0.00142099,0.00160027,-0.000995536,-0.000835807,0.000259502
958,3,-20.6961,16.1348,-1735.5,-178020,70105.1,35907.6,894.395,928.576,0,70.1761,151.701,-1637.23,-125893,-66782,-103525,251.21,902.894,0,-0.00120098,0.00114481,0.000928982,-0.00104179,0.000728215,-4.15675e-05,-0.000874584,0.000497365
958,4,-21.0013,16.7451,-1735.8,-178237,69457.8,36050.7,894.015,928.683,0,69.8709,151.701,-1636.93,-126896,-66696.9,-103430,251.255,903.521,0,0.000143443,0.000619234,0.000566061,0.000421139,0.000387284,0.000346365,0.000340916,0.000599594
958,5,-20.2383,16.1348,-1737.02,-177152,70164.6,36680.8,894.394,927.986,0,70.0235,151.853,-1636.93,-126164,-66696.9,-103581,251.255,903.074,0,0.000394735,0.00028955,0.000502273,0.000365408,0.000411121,0.000442215,0.000469499,0.00026286
958,6,-21.0013,15.8296,-1736.11,-177966,69665,36405.6,894.127,928.509,0,70.6339,151.548,-1636.62,-127412,-66978,-103197,251.076,903.851,0,0.000438883,0.000304994,0.000244939,0.000453369,0.000408099,0.000377252,0.000300628,0.000326984
